submission_id,RT,age,comments,correctness,cue_category,cue_type,education,endTime,expected,experiment_id,gender,image_category,info,key_pressed,languages,picture,question,sound,startDate,startTime,timeSpent,trial_number,trial_type
1579,3085,24,,correct,bird,sound,,1595340536296,match,162,female/ weiblich,bird,incongruent,y,deutsch,materials/images/bird_sparrow_1.jpg, ,materials/sounds/bird_owl.wav,Tue Jul 21 2020 15:39:14 GMT+0200 (Mitteleuropäische Sommerzeit),1595338754344,29.6992,1,practice
1579,3177,24,,correct,motorcycle,label,,1595340536296,no match,162,female/ weiblich,bird,label_incorrect,n,deutsch,materials/images/bird_sparrow_1.jpg, ,materials/labels/motorcycle_female.wav,Tue Jul 21 2020 15:39:14 GMT+0200 (Mitteleuropäische Sommerzeit),1595338754344,29.6992,2,practice
1579,3097,24,,correct,bird,sound,,1595340536296,match,162,female/ weiblich,bird,congruent,y,deutsch,materials/images/bird_owl_1.jpg, ,materials/sounds/bird_owl.wav,Tue Jul 21 2020 15:39:14 GMT+0200 (Mitteleuropäische Sommerzeit),1595338754344,29.6992,3,practice
1579,1724,24,,correct,drum,sound,,1595340536296,no match,162,female/ weiblich,bird,sound_incorrect,n,deutsch,materials/images/bird_owl_1.jpg, ,materials/sounds/drum_bongo.wav,Tue Jul 21 2020 15:39:14 GMT+0200 (Mitteleuropäische Sommerzeit),1595338754344,29.6992,4,practice
1579,2396,24,,correct,bird,label,,1595340536296,no match,162,female/ weiblich,drum,label_incorrect,n,deutsch,materials/images/drum_kit_2.jpg, ,materials/labels/bird_male.wav,Tue Jul 21 2020 15:39:14 GMT+0200 (Mitteleuropäische Sommerzeit),1595338754344,29.6992,5,practice
1579,2390,24,,correct,bird,label,,1595340536296,match,162,female/ weiblich,bird,label_correct,y,deutsch,materials/images/bird_owl_1.jpg, ,materials/labels/bird_female.wav,Tue Jul 21 2020 15:39:14 GMT+0200 (Mitteleuropäische Sommerzeit),1595338754344,29.6992,6,practice
1579,1941,24,,correct,drum,sound,,1595340536296,match,162,female/ weiblich,drum,incongruent,y,deutsch,materials/images/drum_bongo_2.jpg, ,materials/sounds/drum_kit.wav,Tue Jul 21 2020 15:39:14 GMT+0200 (Mitteleuropäische Sommerzeit),1595338754344,29.6992,1,main
1579,1716,24,,correct,phone,sound,,1595340536296,match,162,female/ weiblich,phone,incongruent,y,deutsch,materials/images/phone_rotary_2.jpg, ,materials/sounds/phone_cell.wav,Tue Jul 21 2020 15:39:14 GMT+0200 (Mitteleuropäische Sommerzeit),1595338754344,29.6992,2,main
1579,1898,24,,correct,drum,sound,,1595340536296,no match,162,female/ weiblich,guitar,sound_incorrect,n,deutsch,materials/images/guitar_electric_1.jpg, ,materials/sounds/drum_bongo.wav,Tue Jul 21 2020 15:39:14 GMT+0200 (Mitteleuropäische Sommerzeit),1595338754344,29.6992,3,main
1579,1370,24,,correct,motorcycle,sound,,1595340536296,no match,162,female/ weiblich,dog,sound_incorrect,n,deutsch,materials/images/dog_poodle_1.jpg, ,materials/sounds/motorcycle_big.wav,Tue Jul 21 2020 15:39:14 GMT+0200 (Mitteleuropäische Sommerzeit),1595338754344,29.6992,4,main
1579,1480,24,,correct,drum,sound,,1595340536296,no match,162,female/ weiblich,guitar,sound_incorrect,n,deutsch,materials/images/guitar_acoustic_2.jpg, ,materials/sounds/drum_bongo.wav,Tue Jul 21 2020 15:39:14 GMT+0200 (Mitteleuropäische Sommerzeit),1595338754344,29.6992,5,main
1579,1101,24,,correct,bird,label,,1595340536296,no match,162,female/ weiblich,guitar,label_incorrect,n,deutsch,materials/images/guitar_acoustic_1.jpg, ,materials/labels/bird_male.wav,Tue Jul 21 2020 15:39:14 GMT+0200 (Mitteleuropäische Sommerzeit),1595338754344,29.6992,6,main
1579,1208,24,,correct,bird,label,,1595340536296,match,162,female/ weiblich,bird,label_correct,y,deutsch,materials/images/bird_sparrow_2.jpg, ,materials/labels/bird_female.wav,Tue Jul 21 2020 15:39:14 GMT+0200 (Mitteleuropäische Sommerzeit),1595338754344,29.6992,7,main
1579,1296,24,,correct,drum,sound,,1595340536296,no match,162,female/ weiblich,motorcycle,sound_incorrect,n,deutsch,materials/images/motorcycle_small_2.jpg, ,materials/sounds/drum_bongo.wav,Tue Jul 21 2020 15:39:14 GMT+0200 (Mitteleuropäische Sommerzeit),1595338754344,29.6992,8,main
1579,893,24,,correct,drum,sound,,1595340536296,no match,162,female/ weiblich,guitar,sound_incorrect,n,deutsch,materials/images/guitar_electric_1.jpg, ,materials/sounds/drum_kit.wav,Tue Jul 21 2020 15:39:14 GMT+0200 (Mitteleuropäische Sommerzeit),1595338754344,29.6992,9,main
1579,661,24,,correct,drum,label,,1595340536296,no match,162,female/ weiblich,guitar,label_incorrect,n,deutsch,materials/images/guitar_acoustic_1.jpg, ,materials/labels/drum_male.wav,Tue Jul 21 2020 15:39:14 GMT+0200 (Mitteleuropäische Sommerzeit),1595338754344,29.6992,10,main
1579,1572,24,,correct,motorcycle,label,,1595340536296,match,162,female/ weiblich,motorcycle,label_correct,y,deutsch,materials/images/motorcycle_small_1.jpg, ,materials/labels/motorcycle_male.wav,Tue Jul 21 2020 15:39:14 GMT+0200 (Mitteleuropäische Sommerzeit),1595338754344,29.6992,11,main
1579,639,24,,correct,guitar,sound,,1595340536296,match,162,female/ weiblich,guitar,congruent,y,deutsch,materials/images/guitar_electric_1.jpg, ,materials/sounds/guitar_electric.wav,Tue Jul 21 2020 15:39:14 GMT+0200 (Mitteleuropäische Sommerzeit),1595338754344,29.6992,12,main
1579,617,24,,correct,phone,label,,1595340536296,match,162,female/ weiblich,phone,label_correct,y,deutsch,materials/images/phone_rotary_2.jpg, ,materials/labels/phone_male.wav,Tue Jul 21 2020 15:39:14 GMT+0200 (Mitteleuropäische Sommerzeit),1595338754344,29.6992,13,main
1579,1536,24,,correct,motorcycle,sound,,1595340536296,match,162,female/ weiblich,motorcycle,congruent,y,deutsch,materials/images/motorcycle_big_1.jpg, ,materials/sounds/motorcycle_big.wav,Tue Jul 21 2020 15:39:14 GMT+0200 (Mitteleuropäische Sommerzeit),1595338754344,29.6992,14,main
1579,1093,24,,correct,drum,sound,,1595340536296,match,162,female/ weiblich,drum,congruent,y,deutsch,materials/images/drum_kit_1.jpg, ,materials/sounds/drum_kit.wav,Tue Jul 21 2020 15:39:14 GMT+0200 (Mitteleuropäische Sommerzeit),1595338754344,29.6992,15,main
1579,1413,24,,correct,motorcycle,sound,,1595340536296,no match,162,female/ weiblich,bird,sound_incorrect,n,deutsch,materials/images/bird_owl_2.jpg, ,materials/sounds/motorcycle_big.wav,Tue Jul 21 2020 15:39:14 GMT+0200 (Mitteleuropäische Sommerzeit),1595338754344,29.6992,16,main
1579,1027,24,,correct,motorcycle,sound,,1595340536296,no match,162,female/ weiblich,phone,sound_incorrect,n,deutsch,materials/images/phone_cell_2.jpg, ,materials/sounds/motorcycle_big.wav,Tue Jul 21 2020 15:39:14 GMT+0200 (Mitteleuropäische Sommerzeit),1595338754344,29.6992,17,main
1579,562,24,,incorrect,motorcycle,label,,1595340536296,no match,162,female/ weiblich,drum,label_incorrect,y,deutsch,materials/images/drum_bongo_2.jpg, ,materials/labels/motorcycle_male.wav,Tue Jul 21 2020 15:39:14 GMT+0200 (Mitteleuropäische Sommerzeit),1595338754344,29.6992,18,main
1579,551,24,,correct,drum,label,,1595340536296,no match,162,female/ weiblich,phone,label_incorrect,n,deutsch,materials/images/phone_cell_2.jpg, ,materials/labels/drum_male.wav,Tue Jul 21 2020 15:39:14 GMT+0200 (Mitteleuropäische Sommerzeit),1595338754344,29.6992,19,main
1579,688,24,,incorrect,motorcycle,sound,,1595340536296,match,162,female/ weiblich,motorcycle,incongruent,n,deutsch,materials/images/motorcycle_small_2.jpg, ,materials/sounds/motorcycle_big.wav,Tue Jul 21 2020 15:39:14 GMT+0200 (Mitteleuropäische Sommerzeit),1595338754344,29.6992,20,main
1579,726,24,,correct,motorcycle,sound,,1595340536296,no match,162,female/ weiblich,drum,sound_incorrect,n,deutsch,materials/images/drum_bongo_2.jpg, ,materials/sounds/motorcycle_big.wav,Tue Jul 21 2020 15:39:14 GMT+0200 (Mitteleuropäische Sommerzeit),1595338754344,29.6992,21,main
1579,569,24,,correct,motorcycle,label,,1595340536296,no match,162,female/ weiblich,phone,label_incorrect,n,deutsch,materials/images/phone_rotary_2.jpg, ,materials/labels/motorcycle_female.wav,Tue Jul 21 2020 15:39:14 GMT+0200 (Mitteleuropäische Sommerzeit),1595338754344,29.6992,22,main
1579,602,24,,correct,drum,sound,,1595340536296,no match,162,female/ weiblich,dog,sound_incorrect,n,deutsch,materials/images/dog_poodle_1.jpg, ,materials/sounds/drum_kit.wav,Tue Jul 21 2020 15:39:14 GMT+0200 (Mitteleuropäische Sommerzeit),1595338754344,29.6992,23,main
1579,716,24,,correct,motorcycle,label,,1595340536296,no match,162,female/ weiblich,drum,label_incorrect,n,deutsch,materials/images/drum_kit_2.jpg, ,materials/labels/motorcycle_male.wav,Tue Jul 21 2020 15:39:14 GMT+0200 (Mitteleuropäische Sommerzeit),1595338754344,29.6992,24,main
1579,513,24,,correct,drum,sound,,1595340536296,no match,162,female/ weiblich,bird,sound_incorrect,n,deutsch,materials/images/bird_owl_2.jpg, ,materials/sounds/drum_bongo.wav,Tue Jul 21 2020 15:39:14 GMT+0200 (Mitteleuropäische Sommerzeit),1595338754344,29.6992,25,main
1579,1180,24,,correct,motorcycle,label,,1595340536296,no match,162,female/ weiblich,guitar,label_incorrect,n,deutsch,materials/images/guitar_electric_2.jpg, ,materials/labels/motorcycle_female.wav,Tue Jul 21 2020 15:39:14 GMT+0200 (Mitteleuropäische Sommerzeit),1595338754344,29.6992,26,main
1579,601,24,,correct,guitar,sound,,1595340536296,match,162,female/ weiblich,guitar,congruent,y,deutsch,materials/images/guitar_acoustic_2.jpg, ,materials/sounds/guitar_acoustic.wav,Tue Jul 21 2020 15:39:14 GMT+0200 (Mitteleuropäische Sommerzeit),1595338754344,29.6992,27,main
1579,678,24,,correct,bird,label,,1595340536296,match,162,female/ weiblich,bird,label_correct,y,deutsch,materials/images/bird_owl_1.jpg, ,materials/labels/bird_male.wav,Tue Jul 21 2020 15:39:14 GMT+0200 (Mitteleuropäische Sommerzeit),1595338754344,29.6992,28,main
1579,1133,24,,correct,motorcycle,sound,,1595340536296,match,162,female/ weiblich,motorcycle,incongruent,y,deutsch,materials/images/motorcycle_big_1.jpg, ,materials/sounds/motorcycle_small.wav,Tue Jul 21 2020 15:39:14 GMT+0200 (Mitteleuropäische Sommerzeit),1595338754344,29.6992,29,main
1579,1651,24,,correct,drum,label,,1595340536296,no match,162,female/ weiblich,motorcycle,label_incorrect,n,deutsch,materials/images/motorcycle_big_2.jpg, ,materials/labels/drum_female.wav,Tue Jul 21 2020 15:39:14 GMT+0200 (Mitteleuropäische Sommerzeit),1595338754344,29.6992,30,main
1579,511,24,,correct,bird,label,,1595340536296,no match,162,female/ weiblich,phone,label_incorrect,n,deutsch,materials/images/phone_cell_2.jpg, ,materials/labels/bird_male.wav,Tue Jul 21 2020 15:39:14 GMT+0200 (Mitteleuropäische Sommerzeit),1595338754344,29.6992,31,main
1579,668,24,,correct,drum,sound,,1595340536296,no match,162,female/ weiblich,bird,sound_incorrect,n,deutsch,materials/images/bird_owl_1.jpg, ,materials/sounds/drum_kit.wav,Tue Jul 21 2020 15:39:14 GMT+0200 (Mitteleuropäische Sommerzeit),1595338754344,29.6992,32,main
1579,722,24,,correct,motorcycle,sound,,1595340536296,no match,162,female/ weiblich,drum,sound_incorrect,n,deutsch,materials/images/drum_kit_2.jpg, ,materials/sounds/motorcycle_big.wav,Tue Jul 21 2020 15:39:14 GMT+0200 (Mitteleuropäische Sommerzeit),1595338754344,29.6992,33,main
1579,509,24,,correct,guitar,sound,,1595340536296,match,162,female/ weiblich,guitar,incongruent,y,deutsch,materials/images/guitar_acoustic_2.jpg, ,materials/sounds/guitar_electric.wav,Tue Jul 21 2020 15:39:14 GMT+0200 (Mitteleuropäische Sommerzeit),1595338754344,29.6992,34,main
1579,567,24,,correct,drum,sound,,1595340536296,no match,162,female/ weiblich,phone,sound_incorrect,n,deutsch,materials/images/phone_cell_2.jpg, ,materials/sounds/drum_bongo.wav,Tue Jul 21 2020 15:39:14 GMT+0200 (Mitteleuropäische Sommerzeit),1595338754344,29.6992,35,main
1579,3229,24,,correct,drum,sound,,1595340536296,match,162,female/ weiblich,drum,congruent,y,deutsch,materials/images/drum_bongo_1.jpg, ,materials/sounds/drum_bongo.wav,Tue Jul 21 2020 15:39:14 GMT+0200 (Mitteleuropäische Sommerzeit),1595338754344,29.6992,36,main
1579,677,24,,correct,guitar,sound,,1595340536296,match,162,female/ weiblich,guitar,incongruent,y,deutsch,materials/images/guitar_electric_1.jpg, ,materials/sounds/guitar_acoustic.wav,Tue Jul 21 2020 15:39:14 GMT+0200 (Mitteleuropäische Sommerzeit),1595338754344,29.6992,37,main
1579,1666,24,,correct,drum,sound,,1595340536296,no match,162,female/ weiblich,phone,sound_incorrect,n,deutsch,materials/images/phone_rotary_1.jpg, ,materials/sounds/drum_kit.wav,Tue Jul 21 2020 15:39:14 GMT+0200 (Mitteleuropäische Sommerzeit),1595338754344,29.6992,38,main
1579,872,24,,correct,drum,label,,1595340536296,match,162,female/ weiblich,drum,label_correct,y,deutsch,materials/images/drum_bongo_1.jpg, ,materials/labels/drum_male.wav,Tue Jul 21 2020 15:39:14 GMT+0200 (Mitteleuropäische Sommerzeit),1595338754344,29.6992,39,main
1579,678,24,,correct,drum,label,,1595340536296,no match,162,female/ weiblich,bird,label_incorrect,n,deutsch,materials/images/bird_sparrow_2.jpg, ,materials/labels/drum_female.wav,Tue Jul 21 2020 15:39:14 GMT+0200 (Mitteleuropäische Sommerzeit),1595338754344,29.6992,40,main
1579,708,24,,correct,motorcycle,label,,1595340536296,no match,162,female/ weiblich,drum,label_incorrect,n,deutsch,materials/images/drum_kit_1.jpg, ,materials/labels/motorcycle_female.wav,Tue Jul 21 2020 15:39:14 GMT+0200 (Mitteleuropäische Sommerzeit),1595338754344,29.6992,41,main
1579,2261,24,,correct,motorcycle,label,,1595340536296,no match,162,female/ weiblich,dog,label_incorrect,n,deutsch,materials/images/dog_labmix_2.jpg, ,materials/labels/motorcycle_male.wav,Tue Jul 21 2020 15:39:14 GMT+0200 (Mitteleuropäische Sommerzeit),1595338754344,29.6992,42,main
1579,519,24,,correct,drum,sound,,1595340536296,no match,162,female/ weiblich,bird,sound_incorrect,n,deutsch,materials/images/bird_owl_1.jpg, ,materials/sounds/drum_bongo.wav,Tue Jul 21 2020 15:39:14 GMT+0200 (Mitteleuropäische Sommerzeit),1595338754344,29.6992,43,main
1579,636,24,,correct,bird,label,,1595340536296,match,162,female/ weiblich,bird,label_correct,y,deutsch,materials/images/bird_sparrow_2.jpg, ,materials/labels/bird_male.wav,Tue Jul 21 2020 15:39:14 GMT+0200 (Mitteleuropäische Sommerzeit),1595338754344,29.6992,44,main
1579,4752,24,,correct,phone,label,,1595340536296,match,162,female/ weiblich,phone,label_correct,y,deutsch,materials/images/phone_cell_1.jpg, ,materials/labels/phone_male.wav,Tue Jul 21 2020 15:39:14 GMT+0200 (Mitteleuropäische Sommerzeit),1595338754344,29.6992,45,main
1579,1620,24,,correct,drum,sound,,1595340536296,no match,162,female/ weiblich,bird,sound_incorrect,n,deutsch,materials/images/bird_sparrow_2.jpg, ,materials/sounds/drum_bongo.wav,Tue Jul 21 2020 15:39:14 GMT+0200 (Mitteleuropäische Sommerzeit),1595338754344,29.6992,46,main
1579,2283,24,,correct,dog,sound,,1595340536296,match,162,female/ weiblich,dog,congruent,y,deutsch,materials/images/dog_poodle_2.jpg, ,materials/sounds/dog_poodle.wav,Tue Jul 21 2020 15:39:14 GMT+0200 (Mitteleuropäische Sommerzeit),1595338754344,29.6992,47,main
1579,562,24,,correct,drum,sound,,1595340536296,no match,162,female/ weiblich,phone,sound_incorrect,n,deutsch,materials/images/phone_cell_1.jpg, ,materials/sounds/drum_bongo.wav,Tue Jul 21 2020 15:39:14 GMT+0200 (Mitteleuropäische Sommerzeit),1595338754344,29.6992,48,main
1579,2294,24,,correct,dog,sound,,1595340536296,match,162,female/ weiblich,dog,incongruent,y,deutsch,materials/images/dog_labmix_1.jpg, ,materials/sounds/dog_poodle.wav,Tue Jul 21 2020 15:39:14 GMT+0200 (Mitteleuropäische Sommerzeit),1595338754344,29.6992,49,main
1579,847,24,,correct,dog,label,,1595340536296,match,162,female/ weiblich,dog,label_correct,y,deutsch,materials/images/dog_labmix_1.jpg, ,materials/labels/dog_male.wav,Tue Jul 21 2020 15:39:14 GMT+0200 (Mitteleuropäische Sommerzeit),1595338754344,29.6992,50,main
1579,642,24,,correct,dog,label,,1595340536296,match,162,female/ weiblich,dog,label_correct,y,deutsch,materials/images/dog_poodle_1.jpg, ,materials/labels/dog_male.wav,Tue Jul 21 2020 15:39:14 GMT+0200 (Mitteleuropäische Sommerzeit),1595338754344,29.6992,51,main
1579,739,24,,correct,drum,sound,,1595340536296,no match,162,female/ weiblich,motorcycle,sound_incorrect,n,deutsch,materials/images/motorcycle_big_2.jpg, ,materials/sounds/drum_kit.wav,Tue Jul 21 2020 15:39:14 GMT+0200 (Mitteleuropäische Sommerzeit),1595338754344,29.6992,52,main
1579,597,24,,correct,drum,sound,,1595340536296,no match,162,female/ weiblich,phone,sound_incorrect,n,deutsch,materials/images/phone_rotary_1.jpg, ,materials/sounds/drum_bongo.wav,Tue Jul 21 2020 15:39:14 GMT+0200 (Mitteleuropäische Sommerzeit),1595338754344,29.6992,53,main
1579,845,24,,correct,phone,label,,1595340536296,match,162,female/ weiblich,phone,label_correct,y,deutsch,materials/images/phone_rotary_1.jpg, ,materials/labels/phone_female.wav,Tue Jul 21 2020 15:39:14 GMT+0200 (Mitteleuropäische Sommerzeit),1595338754344,29.6992,54,main
1579,629,24,,correct,bird,label,,1595340536296,no match,162,female/ weiblich,phone,label_incorrect,n,deutsch,materials/images/phone_rotary_2.jpg, ,materials/labels/bird_male.wav,Tue Jul 21 2020 15:39:14 GMT+0200 (Mitteleuropäische Sommerzeit),1595338754344,29.6992,55,main
1579,577,24,,correct,bird,label,,1595340536296,no match,162,female/ weiblich,dog,label_incorrect,n,deutsch,materials/images/dog_labmix_1.jpg, ,materials/labels/bird_male.wav,Tue Jul 21 2020 15:39:14 GMT+0200 (Mitteleuropäische Sommerzeit),1595338754344,29.6992,56,main
1579,1312,24,,correct,drum,sound,,1595340536296,match,162,female/ weiblich,drum,congruent,y,deutsch,materials/images/drum_bongo_2.jpg, ,materials/sounds/drum_bongo.wav,Tue Jul 21 2020 15:39:14 GMT+0200 (Mitteleuropäische Sommerzeit),1595338754344,29.6992,57,main
1579,643,24,,correct,drum,label,,1595340536296,no match,162,female/ weiblich,phone,label_incorrect,n,deutsch,materials/images/phone_cell_1.jpg, ,materials/labels/drum_male.wav,Tue Jul 21 2020 15:39:14 GMT+0200 (Mitteleuropäische Sommerzeit),1595338754344,29.6992,58,main
1579,519,24,,correct,drum,sound,,1595340536296,no match,162,female/ weiblich,dog,sound_incorrect,n,deutsch,materials/images/dog_poodle_2.jpg, ,materials/sounds/drum_kit.wav,Tue Jul 21 2020 15:39:14 GMT+0200 (Mitteleuropäische Sommerzeit),1595338754344,29.6992,59,main
1579,919,24,,correct,drum,sound,,1595340536296,no match,162,female/ weiblich,phone,sound_incorrect,n,deutsch,materials/images/phone_rotary_2.jpg, ,materials/sounds/drum_bongo.wav,Tue Jul 21 2020 15:39:14 GMT+0200 (Mitteleuropäische Sommerzeit),1595338754344,29.6992,60,main
1579,562,24,,correct,motorcycle,label,,1595340536296,no match,162,female/ weiblich,bird,label_incorrect,n,deutsch,materials/images/bird_owl_1.jpg, ,materials/labels/motorcycle_female.wav,Tue Jul 21 2020 15:39:14 GMT+0200 (Mitteleuropäische Sommerzeit),1595338754344,29.6992,61,main
1579,602,24,,correct,bird,label,,1595340536296,no match,162,female/ weiblich,drum,label_incorrect,n,deutsch,materials/images/drum_kit_2.jpg, ,materials/labels/bird_male.wav,Tue Jul 21 2020 15:39:14 GMT+0200 (Mitteleuropäische Sommerzeit),1595338754344,29.6992,62,main
1579,592,24,,correct,motorcycle,sound,,1595340536296,match,162,female/ weiblich,motorcycle,congruent,y,deutsch,materials/images/motorcycle_big_2.jpg, ,materials/sounds/motorcycle_big.wav,Tue Jul 21 2020 15:39:14 GMT+0200 (Mitteleuropäische Sommerzeit),1595338754344,29.6992,63,main
1579,643,24,,correct,drum,sound,,1595340536296,no match,162,female/ weiblich,guitar,sound_incorrect,n,deutsch,materials/images/guitar_acoustic_1.jpg, ,materials/sounds/drum_bongo.wav,Tue Jul 21 2020 15:39:14 GMT+0200 (Mitteleuropäische Sommerzeit),1595338754344,29.6992,64,main
1579,546,24,,correct,motorcycle,label,,1595340536296,no match,162,female/ weiblich,guitar,label_incorrect,n,deutsch,materials/images/guitar_acoustic_1.jpg, ,materials/labels/motorcycle_female.wav,Tue Jul 21 2020 15:39:14 GMT+0200 (Mitteleuropäische Sommerzeit),1595338754344,29.6992,65,main
1579,1012,24,,correct,motorcycle,sound,,1595340536296,match,162,female/ weiblich,motorcycle,incongruent,y,deutsch,materials/images/motorcycle_small_1.jpg, ,materials/sounds/motorcycle_big.wav,Tue Jul 21 2020 15:39:14 GMT+0200 (Mitteleuropäische Sommerzeit),1595338754344,29.6992,66,main
1579,1140,24,,correct,motorcycle,sound,,1595340536296,no match,162,female/ weiblich,drum,sound_incorrect,n,deutsch,materials/images/drum_bongo_1.jpg, ,materials/sounds/motorcycle_big.wav,Tue Jul 21 2020 15:39:14 GMT+0200 (Mitteleuropäische Sommerzeit),1595338754344,29.6992,67,main
1579,1039,24,,correct,drum,label,,1595340536296,match,162,female/ weiblich,drum,label_correct,y,deutsch,materials/images/drum_kit_1.jpg, ,materials/labels/drum_female.wav,Tue Jul 21 2020 15:39:14 GMT+0200 (Mitteleuropäische Sommerzeit),1595338754344,29.6992,68,main
1579,544,24,,correct,motorcycle,label,,1595340536296,no match,162,female/ weiblich,drum,label_incorrect,n,deutsch,materials/images/drum_bongo_2.jpg, ,materials/labels/motorcycle_female.wav,Tue Jul 21 2020 15:39:14 GMT+0200 (Mitteleuropäische Sommerzeit),1595338754344,29.6992,69,main
1579,541,24,,correct,bird,label,,1595340536296,no match,162,female/ weiblich,guitar,label_incorrect,n,deutsch,materials/images/guitar_electric_1.jpg, ,materials/labels/bird_male.wav,Tue Jul 21 2020 15:39:14 GMT+0200 (Mitteleuropäische Sommerzeit),1595338754344,29.6992,70,main
1579,614,24,,correct,bird,label,,1595340536296,no match,162,female/ weiblich,dog,label_incorrect,n,deutsch,materials/images/dog_poodle_2.jpg, ,materials/labels/bird_male.wav,Tue Jul 21 2020 15:39:14 GMT+0200 (Mitteleuropäische Sommerzeit),1595338754344,29.6992,71,main
1579,680,24,,correct,bird,label,,1595340536296,no match,162,female/ weiblich,dog,label_incorrect,n,deutsch,materials/images/dog_labmix_2.jpg, ,materials/labels/bird_male.wav,Tue Jul 21 2020 15:39:14 GMT+0200 (Mitteleuropäische Sommerzeit),1595338754344,29.6992,72,main
1579,586,24,,correct,drum,label,,1595340536296,no match,162,female/ weiblich,bird,label_incorrect,n,deutsch,materials/images/bird_sparrow_1.jpg, ,materials/labels/drum_female.wav,Tue Jul 21 2020 15:39:14 GMT+0200 (Mitteleuropäische Sommerzeit),1595338754344,29.6992,73,main
1579,608,24,,correct,motorcycle,label,,1595340536296,match,162,female/ weiblich,motorcycle,label_correct,y,deutsch,materials/images/motorcycle_small_1.jpg, ,materials/labels/motorcycle_female.wav,Tue Jul 21 2020 15:39:14 GMT+0200 (Mitteleuropäische Sommerzeit),1595338754344,29.6992,74,main
1579,999,24,,correct,dog,label,,1595340536296,match,162,female/ weiblich,dog,label_correct,y,deutsch,materials/images/dog_poodle_1.jpg, ,materials/labels/dog_female.wav,Tue Jul 21 2020 15:39:14 GMT+0200 (Mitteleuropäische Sommerzeit),1595338754344,29.6992,75,main
1579,572,24,,correct,bird,sound,,1595340536296,match,162,female/ weiblich,bird,congruent,y,deutsch,materials/images/bird_owl_1.jpg, ,materials/sounds/bird_owl.wav,Tue Jul 21 2020 15:39:14 GMT+0200 (Mitteleuropäische Sommerzeit),1595338754344,29.6992,76,main
1579,1035,24,,correct,phone,sound,,1595340536296,match,162,female/ weiblich,phone,incongruent,y,deutsch,materials/images/phone_cell_1.jpg, ,materials/sounds/phone_rotary.wav,Tue Jul 21 2020 15:39:14 GMT+0200 (Mitteleuropäische Sommerzeit),1595338754344,29.6992,77,main
1579,523,24,,correct,motorcycle,sound,,1595340536296,no match,162,female/ weiblich,phone,sound_incorrect,n,deutsch,materials/images/phone_cell_1.jpg, ,materials/sounds/motorcycle_big.wav,Tue Jul 21 2020 15:39:14 GMT+0200 (Mitteleuropäische Sommerzeit),1595338754344,29.6992,78,main
1579,487,24,,correct,drum,sound,,1595340536296,match,162,female/ weiblich,drum,incongruent,y,deutsch,materials/images/drum_bongo_1.jpg, ,materials/sounds/drum_kit.wav,Tue Jul 21 2020 15:39:14 GMT+0200 (Mitteleuropäische Sommerzeit),1595338754344,29.6992,79,main
1579,588,24,,correct,drum,sound,,1595340536296,no match,162,female/ weiblich,dog,sound_incorrect,n,deutsch,materials/images/dog_labmix_1.jpg, ,materials/sounds/drum_kit.wav,Tue Jul 21 2020 15:39:14 GMT+0200 (Mitteleuropäische Sommerzeit),1595338754344,29.6992,80,main
1579,1273,24,,correct,guitar,label,,1595340536296,match,162,female/ weiblich,guitar,label_correct,y,deutsch,materials/images/guitar_acoustic_1.jpg, ,materials/labels/guitar_male.wav,Tue Jul 21 2020 15:39:14 GMT+0200 (Mitteleuropäische Sommerzeit),1595338754344,29.6992,81,main
1579,1089,24,,correct,motorcycle,sound,,1595340536296,no match,162,female/ weiblich,drum,sound_incorrect,n,deutsch,materials/images/drum_kit_1.jpg, ,materials/sounds/motorcycle_big.wav,Tue Jul 21 2020 15:39:14 GMT+0200 (Mitteleuropäische Sommerzeit),1595338754344,29.6992,82,main
1579,775,24,,correct,motorcycle,label,,1595340536296,match,162,female/ weiblich,motorcycle,label_correct,y,deutsch,materials/images/motorcycle_big_2.jpg, ,materials/labels/motorcycle_male.wav,Tue Jul 21 2020 15:39:14 GMT+0200 (Mitteleuropäische Sommerzeit),1595338754344,29.6992,83,main
1579,551,24,,correct,guitar,label,,1595340536296,match,162,female/ weiblich,guitar,label_correct,y,deutsch,materials/images/guitar_electric_1.jpg, ,materials/labels/guitar_male.wav,Tue Jul 21 2020 15:39:14 GMT+0200 (Mitteleuropäische Sommerzeit),1595338754344,29.6992,84,main
1579,733,24,,correct,motorcycle,label,,1595340536296,no match,162,female/ weiblich,drum,label_incorrect,n,deutsch,materials/images/drum_kit_2.jpg, ,materials/labels/motorcycle_female.wav,Tue Jul 21 2020 15:39:14 GMT+0200 (Mitteleuropäische Sommerzeit),1595338754344,29.6992,85,main
1579,554,24,,correct,drum,sound,,1595340536296,no match,162,female/ weiblich,dog,sound_incorrect,n,deutsch,materials/images/dog_poodle_1.jpg, ,materials/sounds/drum_bongo.wav,Tue Jul 21 2020 15:39:14 GMT+0200 (Mitteleuropäische Sommerzeit),1595338754344,29.6992,86,main
1579,541,24,,correct,drum,label,,1595340536296,match,162,female/ weiblich,drum,label_correct,y,deutsch,materials/images/drum_kit_2.jpg, ,materials/labels/drum_female.wav,Tue Jul 21 2020 15:39:14 GMT+0200 (Mitteleuropäische Sommerzeit),1595338754344,29.6992,87,main
1579,540,24,,correct,dog,label,,1595340536296,match,162,female/ weiblich,dog,label_correct,y,deutsch,materials/images/dog_poodle_2.jpg, ,materials/labels/dog_male.wav,Tue Jul 21 2020 15:39:14 GMT+0200 (Mitteleuropäische Sommerzeit),1595338754344,29.6992,88,main
1579,575,24,,correct,motorcycle,label,,1595340536296,no match,162,female/ weiblich,phone,label_incorrect,n,deutsch,materials/images/phone_cell_2.jpg, ,materials/labels/motorcycle_female.wav,Tue Jul 21 2020 15:39:14 GMT+0200 (Mitteleuropäische Sommerzeit),1595338754344,29.6992,89,main
1579,578,24,,correct,drum,label,,1595340536296,match,162,female/ weiblich,drum,label_correct,y,deutsch,materials/images/drum_kit_1.jpg, ,materials/labels/drum_male.wav,Tue Jul 21 2020 15:39:14 GMT+0200 (Mitteleuropäische Sommerzeit),1595338754344,29.6992,90,main
1579,517,24,,correct,guitar,label,,1595340536296,match,162,female/ weiblich,guitar,label_correct,y,deutsch,materials/images/guitar_acoustic_2.jpg, ,materials/labels/guitar_male.wav,Tue Jul 21 2020 15:39:14 GMT+0200 (Mitteleuropäische Sommerzeit),1595338754344,29.6992,91,main
1579,535,24,,correct,drum,label,,1595340536296,no match,162,female/ weiblich,guitar,label_incorrect,n,deutsch,materials/images/guitar_acoustic_2.jpg, ,materials/labels/drum_male.wav,Tue Jul 21 2020 15:39:14 GMT+0200 (Mitteleuropäische Sommerzeit),1595338754344,29.6992,92,main
1579,546,24,,correct,guitar,sound,,1595340536296,match,162,female/ weiblich,guitar,congruent,y,deutsch,materials/images/guitar_acoustic_1.jpg, ,materials/sounds/guitar_acoustic.wav,Tue Jul 21 2020 15:39:14 GMT+0200 (Mitteleuropäische Sommerzeit),1595338754344,29.6992,93,main
1579,987,24,,incorrect,guitar,sound,,1595340536296,match,162,female/ weiblich,guitar,incongruent,n,deutsch,materials/images/guitar_acoustic_1.jpg, ,materials/sounds/guitar_electric.wav,Tue Jul 21 2020 15:39:14 GMT+0200 (Mitteleuropäische Sommerzeit),1595338754344,29.6992,94,main
1579,1480,24,,correct,drum,sound,,1595340536296,no match,162,female/ weiblich,guitar,sound_incorrect,n,deutsch,materials/images/guitar_electric_2.jpg, ,materials/sounds/drum_bongo.wav,Tue Jul 21 2020 15:39:14 GMT+0200 (Mitteleuropäische Sommerzeit),1595338754344,29.6992,95,main
1579,873,24,,correct,bird,sound,,1595340536296,match,162,female/ weiblich,bird,congruent,y,deutsch,materials/images/bird_sparrow_2.jpg, ,materials/sounds/bird_sparrow.wav,Tue Jul 21 2020 15:39:14 GMT+0200 (Mitteleuropäische Sommerzeit),1595338754344,29.6992,96,main
1579,498,24,,correct,motorcycle,label,,1595340536296,no match,162,female/ weiblich,bird,label_incorrect,n,deutsch,materials/images/bird_sparrow_1.jpg, ,materials/labels/motorcycle_female.wav,Tue Jul 21 2020 15:39:14 GMT+0200 (Mitteleuropäische Sommerzeit),1595338754344,29.6992,97,main
1579,515,24,,correct,bird,sound,,1595340536296,match,162,female/ weiblich,bird,congruent,y,deutsch,materials/images/bird_owl_2.jpg, ,materials/sounds/bird_owl.wav,Tue Jul 21 2020 15:39:14 GMT+0200 (Mitteleuropäische Sommerzeit),1595338754344,29.6992,98,main
1579,791,24,,correct,motorcycle,sound,,1595340536296,no match,162,female/ weiblich,bird,sound_incorrect,n,deutsch,materials/images/bird_owl_1.jpg, ,materials/sounds/motorcycle_big.wav,Tue Jul 21 2020 15:39:14 GMT+0200 (Mitteleuropäische Sommerzeit),1595338754344,29.6992,99,main
1579,459,24,,correct,motorcycle,label,,1595340536296,match,162,female/ weiblich,motorcycle,label_correct,y,deutsch,materials/images/motorcycle_big_2.jpg, ,materials/labels/motorcycle_female.wav,Tue Jul 21 2020 15:39:14 GMT+0200 (Mitteleuropäische Sommerzeit),1595338754344,29.6992,100,main
1579,983,24,,correct,dog,sound,,1595340536296,match,162,female/ weiblich,dog,congruent,y,deutsch,materials/images/dog_labmix_1.jpg, ,materials/sounds/dog_labmix.wav,Tue Jul 21 2020 15:39:14 GMT+0200 (Mitteleuropäische Sommerzeit),1595338754344,29.6992,101,main
1579,602,24,,correct,dog,sound,,1595340536296,match,162,female/ weiblich,dog,incongruent,y,deutsch,materials/images/dog_labmix_2.jpg, ,materials/sounds/dog_poodle.wav,Tue Jul 21 2020 15:39:14 GMT+0200 (Mitteleuropäische Sommerzeit),1595338754344,29.6992,102,main
1579,816,24,,correct,motorcycle,label,,1595340536296,match,162,female/ weiblich,motorcycle,label_correct,y,deutsch,materials/images/motorcycle_small_2.jpg, ,materials/labels/motorcycle_female.wav,Tue Jul 21 2020 15:39:14 GMT+0200 (Mitteleuropäische Sommerzeit),1595338754344,29.6992,103,main
1579,483,24,,incorrect,motorcycle,label,,1595340536296,no match,162,female/ weiblich,guitar,label_incorrect,y,deutsch,materials/images/guitar_electric_1.jpg, ,materials/labels/motorcycle_female.wav,Tue Jul 21 2020 15:39:14 GMT+0200 (Mitteleuropäische Sommerzeit),1595338754344,29.6992,104,main
1579,1413,24,,incorrect,drum,sound,,1595340536296,no match,162,female/ weiblich,motorcycle,sound_incorrect,y,deutsch,materials/images/motorcycle_big_2.jpg, ,materials/sounds/drum_bongo.wav,Tue Jul 21 2020 15:39:14 GMT+0200 (Mitteleuropäische Sommerzeit),1595338754344,29.6992,105,main
1579,583,24,,correct,phone,label,,1595340536296,match,162,female/ weiblich,phone,label_correct,y,deutsch,materials/images/phone_cell_1.jpg, ,materials/labels/phone_female.wav,Tue Jul 21 2020 15:39:14 GMT+0200 (Mitteleuropäische Sommerzeit),1595338754344,29.6992,106,main
1579,560,24,,correct,dog,sound,,1595340536296,match,162,female/ weiblich,dog,congruent,y,deutsch,materials/images/dog_poodle_1.jpg, ,materials/sounds/dog_poodle.wav,Tue Jul 21 2020 15:39:14 GMT+0200 (Mitteleuropäische Sommerzeit),1595338754344,29.6992,107,main
1579,1294,24,,correct,drum,sound,,1595340536296,no match,162,female/ weiblich,motorcycle,sound_incorrect,n,deutsch,materials/images/motorcycle_big_1.jpg, ,materials/sounds/drum_kit.wav,Tue Jul 21 2020 15:39:14 GMT+0200 (Mitteleuropäische Sommerzeit),1595338754344,29.6992,108,main
1579,1070,24,,correct,bird,label,,1595340536296,match,162,female/ weiblich,bird,label_correct,y,deutsch,materials/images/bird_owl_1.jpg, ,materials/labels/bird_female.wav,Tue Jul 21 2020 15:39:14 GMT+0200 (Mitteleuropäische Sommerzeit),1595338754344,29.6992,109,main
1579,440,24,,correct,phone,sound,,1595340536296,match,162,female/ weiblich,phone,incongruent,y,deutsch,materials/images/phone_cell_2.jpg, ,materials/sounds/phone_rotary.wav,Tue Jul 21 2020 15:39:14 GMT+0200 (Mitteleuropäische Sommerzeit),1595338754344,29.6992,110,main
1579,940,24,,correct,motorcycle,label,,1595340536296,no match,162,female/ weiblich,phone,label_incorrect,n,deutsch,materials/images/phone_cell_1.jpg, ,materials/labels/motorcycle_female.wav,Tue Jul 21 2020 15:39:14 GMT+0200 (Mitteleuropäische Sommerzeit),1595338754344,29.6992,111,main
1579,523,24,,correct,motorcycle,sound,,1595340536296,no match,162,female/ weiblich,bird,sound_incorrect,n,deutsch,materials/images/bird_sparrow_2.jpg, ,materials/sounds/motorcycle_big.wav,Tue Jul 21 2020 15:39:14 GMT+0200 (Mitteleuropäische Sommerzeit),1595338754344,29.6992,112,main
1579,568,24,,correct,dog,label,,1595340536296,match,162,female/ weiblich,dog,label_correct,y,deutsch,materials/images/dog_labmix_2.jpg, ,materials/labels/dog_male.wav,Tue Jul 21 2020 15:39:14 GMT+0200 (Mitteleuropäische Sommerzeit),1595338754344,29.6992,113,main
1579,662,24,,correct,bird,label,,1595340536296,no match,162,female/ weiblich,guitar,label_incorrect,n,deutsch,materials/images/guitar_acoustic_2.jpg, ,materials/labels/bird_male.wav,Tue Jul 21 2020 15:39:14 GMT+0200 (Mitteleuropäische Sommerzeit),1595338754344,29.6992,114,main
1579,817,24,,correct,bird,label,,1595340536296,match,162,female/ weiblich,bird,label_correct,y,deutsch,materials/images/bird_owl_2.jpg, ,materials/labels/bird_male.wav,Tue Jul 21 2020 15:39:14 GMT+0200 (Mitteleuropäische Sommerzeit),1595338754344,29.6992,115,main
1579,796,24,,correct,motorcycle,label,,1595340536296,no match,162,female/ weiblich,drum,label_incorrect,n,deutsch,materials/images/drum_kit_1.jpg, ,materials/labels/motorcycle_male.wav,Tue Jul 21 2020 15:39:14 GMT+0200 (Mitteleuropäische Sommerzeit),1595338754344,29.6992,116,main
1579,707,24,,correct,guitar,label,,1595340536296,match,162,female/ weiblich,guitar,label_correct,y,deutsch,materials/images/guitar_acoustic_1.jpg, ,materials/labels/guitar_female.wav,Tue Jul 21 2020 15:39:14 GMT+0200 (Mitteleuropäische Sommerzeit),1595338754344,29.6992,117,main
1579,570,24,,correct,drum,sound,,1595340536296,no match,162,female/ weiblich,motorcycle,sound_incorrect,n,deutsch,materials/images/motorcycle_small_1.jpg, ,materials/sounds/drum_kit.wav,Tue Jul 21 2020 15:39:14 GMT+0200 (Mitteleuropäische Sommerzeit),1595338754344,29.6992,118,main
1579,683,24,,correct,guitar,sound,,1595340536296,match,162,female/ weiblich,guitar,incongruent,y,deutsch,materials/images/guitar_electric_2.jpg, ,materials/sounds/guitar_acoustic.wav,Tue Jul 21 2020 15:39:14 GMT+0200 (Mitteleuropäische Sommerzeit),1595338754344,29.6992,119,main
1579,597,24,,correct,dog,sound,,1595340536296,match,162,female/ weiblich,dog,incongruent,y,deutsch,materials/images/dog_poodle_2.jpg, ,materials/sounds/dog_labmix.wav,Tue Jul 21 2020 15:39:14 GMT+0200 (Mitteleuropäische Sommerzeit),1595338754344,29.6992,120,main
1579,609,24,,correct,phone,label,,1595340536296,match,162,female/ weiblich,phone,label_correct,y,deutsch,materials/images/phone_cell_2.jpg, ,materials/labels/phone_female.wav,Tue Jul 21 2020 15:39:14 GMT+0200 (Mitteleuropäische Sommerzeit),1595338754344,29.6992,121,main
1579,871,24,,correct,motorcycle,sound,,1595340536296,match,162,female/ weiblich,motorcycle,congruent,y,deutsch,materials/images/motorcycle_small_2.jpg, ,materials/sounds/motorcycle_small.wav,Tue Jul 21 2020 15:39:14 GMT+0200 (Mitteleuropäische Sommerzeit),1595338754344,29.6992,122,main
1579,690,24,,correct,motorcycle,label,,1595340536296,no match,162,female/ weiblich,drum,label_incorrect,n,deutsch,materials/images/drum_bongo_1.jpg, ,materials/labels/motorcycle_female.wav,Tue Jul 21 2020 15:39:14 GMT+0200 (Mitteleuropäische Sommerzeit),1595338754344,29.6992,123,main
1579,614,24,,correct,drum,sound,,1595340536296,no match,162,female/ weiblich,bird,sound_incorrect,n,deutsch,materials/images/bird_sparrow_1.jpg, ,materials/sounds/drum_bongo.wav,Tue Jul 21 2020 15:39:14 GMT+0200 (Mitteleuropäische Sommerzeit),1595338754344,29.6992,124,main
1579,504,24,,correct,guitar,sound,,1595340536296,match,162,female/ weiblich,guitar,congruent,y,deutsch,materials/images/guitar_electric_2.jpg, ,materials/sounds/guitar_electric.wav,Tue Jul 21 2020 15:39:14 GMT+0200 (Mitteleuropäische Sommerzeit),1595338754344,29.6992,125,main
1579,539,24,,correct,guitar,label,,1595340536296,match,162,female/ weiblich,guitar,label_correct,y,deutsch,materials/images/guitar_electric_1.jpg, ,materials/labels/guitar_female.wav,Tue Jul 21 2020 15:39:14 GMT+0200 (Mitteleuropäische Sommerzeit),1595338754344,29.6992,126,main
1579,529,24,,correct,drum,sound,,1595340536296,no match,162,female/ weiblich,dog,sound_incorrect,n,deutsch,materials/images/dog_poodle_2.jpg, ,materials/sounds/drum_bongo.wav,Tue Jul 21 2020 15:39:14 GMT+0200 (Mitteleuropäische Sommerzeit),1595338754344,29.6992,127,main
1579,843,24,,correct,drum,label,,1595340536296,no match,162,female/ weiblich,guitar,label_incorrect,n,deutsch,materials/images/guitar_electric_2.jpg, ,materials/labels/drum_male.wav,Tue Jul 21 2020 15:39:14 GMT+0200 (Mitteleuropäische Sommerzeit),1595338754344,29.6992,128,main
1579,575,24,,correct,bird,label,,1595340536296,no match,162,female/ weiblich,drum,label_incorrect,n,deutsch,materials/images/drum_kit_1.jpg, ,materials/labels/bird_male.wav,Tue Jul 21 2020 15:39:14 GMT+0200 (Mitteleuropäische Sommerzeit),1595338754344,29.6992,129,main
1579,669,24,,correct,bird,label,,1595340536296,no match,162,female/ weiblich,motorcycle,label_incorrect,n,deutsch,materials/images/motorcycle_small_1.jpg, ,materials/labels/bird_male.wav,Tue Jul 21 2020 15:39:14 GMT+0200 (Mitteleuropäische Sommerzeit),1595338754344,29.6992,130,main
1579,626,24,,correct,bird,label,,1595340536296,no match,162,female/ weiblich,guitar,label_incorrect,n,deutsch,materials/images/guitar_electric_2.jpg, ,materials/labels/bird_male.wav,Tue Jul 21 2020 15:39:14 GMT+0200 (Mitteleuropäische Sommerzeit),1595338754344,29.6992,131,main
1579,563,24,,correct,drum,label,,1595340536296,no match,162,female/ weiblich,bird,label_incorrect,n,deutsch,materials/images/bird_owl_2.jpg, ,materials/labels/drum_female.wav,Tue Jul 21 2020 15:39:14 GMT+0200 (Mitteleuropäische Sommerzeit),1595338754344,29.6992,132,main
1579,620,24,,correct,drum,sound,,1595340536296,no match,162,female/ weiblich,phone,sound_incorrect,n,deutsch,materials/images/phone_cell_1.jpg, ,materials/sounds/drum_kit.wav,Tue Jul 21 2020 15:39:14 GMT+0200 (Mitteleuropäische Sommerzeit),1595338754344,29.6992,133,main
1579,480,24,,correct,drum,sound,,1595340536296,no match,162,female/ weiblich,motorcycle,sound_incorrect,n,deutsch,materials/images/motorcycle_small_2.jpg, ,materials/sounds/drum_kit.wav,Tue Jul 21 2020 15:39:14 GMT+0200 (Mitteleuropäische Sommerzeit),1595338754344,29.6992,134,main
1579,544,24,,correct,drum,sound,,1595340536296,no match,162,female/ weiblich,guitar,sound_incorrect,n,deutsch,materials/images/guitar_electric_2.jpg, ,materials/sounds/drum_kit.wav,Tue Jul 21 2020 15:39:14 GMT+0200 (Mitteleuropäische Sommerzeit),1595338754344,29.6992,135,main
1579,628,24,,correct,bird,label,,1595340536296,no match,162,female/ weiblich,phone,label_incorrect,n,deutsch,materials/images/phone_rotary_1.jpg, ,materials/labels/bird_male.wav,Tue Jul 21 2020 15:39:14 GMT+0200 (Mitteleuropäische Sommerzeit),1595338754344,29.6992,136,main
1579,613,24,,correct,bird,sound,,1595340536296,match,162,female/ weiblich,bird,incongruent,y,deutsch,materials/images/bird_owl_2.jpg, ,materials/sounds/bird_sparrow.wav,Tue Jul 21 2020 15:39:14 GMT+0200 (Mitteleuropäische Sommerzeit),1595338754344,29.6992,137,main
1579,664,24,,correct,guitar,label,,1595340536296,match,162,female/ weiblich,guitar,label_correct,y,deutsch,materials/images/guitar_acoustic_2.jpg, ,materials/labels/guitar_female.wav,Tue Jul 21 2020 15:39:14 GMT+0200 (Mitteleuropäische Sommerzeit),1595338754344,29.6992,138,main
1579,735,24,,correct,bird,label,,1595340536296,match,162,female/ weiblich,bird,label_correct,y,deutsch,materials/images/bird_sparrow_1.jpg, ,materials/labels/bird_male.wav,Tue Jul 21 2020 15:39:14 GMT+0200 (Mitteleuropäische Sommerzeit),1595338754344,29.6992,139,main
1579,675,24,,correct,motorcycle,label,,1595340536296,no match,162,female/ weiblich,dog,label_incorrect,n,deutsch,materials/images/dog_poodle_1.jpg, ,materials/labels/motorcycle_male.wav,Tue Jul 21 2020 15:39:14 GMT+0200 (Mitteleuropäische Sommerzeit),1595338754344,29.6992,140,main
1579,534,24,,correct,drum,sound,,1595340536296,no match,162,female/ weiblich,motorcycle,sound_incorrect,n,deutsch,materials/images/motorcycle_big_1.jpg, ,materials/sounds/drum_bongo.wav,Tue Jul 21 2020 15:39:14 GMT+0200 (Mitteleuropäische Sommerzeit),1595338754344,29.6992,141,main
1579,497,24,,correct,phone,sound,,1595340536296,match,162,female/ weiblich,phone,congruent,y,deutsch,materials/images/phone_rotary_2.jpg, ,materials/sounds/phone_rotary.wav,Tue Jul 21 2020 15:39:14 GMT+0200 (Mitteleuropäische Sommerzeit),1595338754344,29.6992,142,main
1579,457,24,,correct,phone,label,,1595340536296,match,162,female/ weiblich,phone,label_correct,y,deutsch,materials/images/phone_rotary_2.jpg, ,materials/labels/phone_female.wav,Tue Jul 21 2020 15:39:14 GMT+0200 (Mitteleuropäische Sommerzeit),1595338754344,29.6992,143,main
1579,524,24,,correct,phone,label,,1595340536296,match,162,female/ weiblich,phone,label_correct,y,deutsch,materials/images/phone_cell_2.jpg, ,materials/labels/phone_male.wav,Tue Jul 21 2020 15:39:14 GMT+0200 (Mitteleuropäische Sommerzeit),1595338754344,29.6992,144,main
1579,710,24,,correct,drum,label,,1595340536296,match,162,female/ weiblich,drum,label_correct,y,deutsch,materials/images/drum_kit_2.jpg, ,materials/labels/drum_male.wav,Tue Jul 21 2020 15:39:14 GMT+0200 (Mitteleuropäische Sommerzeit),1595338754344,29.6992,145,main
1579,508,24,,correct,dog,sound,,1595340536296,match,162,female/ weiblich,dog,congruent,y,deutsch,materials/images/dog_labmix_2.jpg, ,materials/sounds/dog_labmix.wav,Tue Jul 21 2020 15:39:14 GMT+0200 (Mitteleuropäische Sommerzeit),1595338754344,29.6992,146,main
1579,551,24,,correct,drum,label,,1595340536296,no match,162,female/ weiblich,bird,label_incorrect,n,deutsch,materials/images/bird_owl_1.jpg, ,materials/labels/drum_female.wav,Tue Jul 21 2020 15:39:14 GMT+0200 (Mitteleuropäische Sommerzeit),1595338754344,29.6992,147,main
1579,579,24,,correct,drum,sound,,1595340536296,no match,162,female/ weiblich,guitar,sound_incorrect,n,deutsch,materials/images/guitar_acoustic_2.jpg, ,materials/sounds/drum_kit.wav,Tue Jul 21 2020 15:39:14 GMT+0200 (Mitteleuropäische Sommerzeit),1595338754344,29.6992,148,main
1579,612,24,,correct,motorcycle,sound,,1595340536296,match,162,female/ weiblich,motorcycle,congruent,y,deutsch,materials/images/motorcycle_small_1.jpg, ,materials/sounds/motorcycle_small.wav,Tue Jul 21 2020 15:39:14 GMT+0200 (Mitteleuropäische Sommerzeit),1595338754344,29.6992,149,main
1579,520,24,,correct,drum,sound,,1595340536296,no match,162,female/ weiblich,bird,sound_incorrect,n,deutsch,materials/images/bird_owl_2.jpg, ,materials/sounds/drum_kit.wav,Tue Jul 21 2020 15:39:14 GMT+0200 (Mitteleuropäische Sommerzeit),1595338754344,29.6992,150,main
1579,529,24,,correct,drum,sound,,1595340536296,match,162,female/ weiblich,drum,congruent,y,deutsch,materials/images/drum_kit_2.jpg, ,materials/sounds/drum_kit.wav,Tue Jul 21 2020 15:39:14 GMT+0200 (Mitteleuropäische Sommerzeit),1595338754344,29.6992,151,main
1579,481,24,,correct,drum,sound,,1595340536296,no match,162,female/ weiblich,dog,sound_incorrect,n,deutsch,materials/images/dog_labmix_2.jpg, ,materials/sounds/drum_bongo.wav,Tue Jul 21 2020 15:39:14 GMT+0200 (Mitteleuropäische Sommerzeit),1595338754344,29.6992,152,main
1579,468,24,,correct,dog,label,,1595340536296,match,162,female/ weiblich,dog,label_correct,y,deutsch,materials/images/dog_labmix_2.jpg, ,materials/labels/dog_female.wav,Tue Jul 21 2020 15:39:14 GMT+0200 (Mitteleuropäische Sommerzeit),1595338754344,29.6992,153,main
1579,606,24,,correct,bird,label,,1595340536296,no match,162,female/ weiblich,phone,label_incorrect,n,deutsch,materials/images/phone_cell_1.jpg, ,materials/labels/bird_male.wav,Tue Jul 21 2020 15:39:14 GMT+0200 (Mitteleuropäische Sommerzeit),1595338754344,29.6992,154,main
1579,500,24,,correct,drum,sound,,1595340536296,no match,162,female/ weiblich,bird,sound_incorrect,n,deutsch,materials/images/bird_sparrow_2.jpg, ,materials/sounds/drum_kit.wav,Tue Jul 21 2020 15:39:14 GMT+0200 (Mitteleuropäische Sommerzeit),1595338754344,29.6992,155,main
1579,583,24,,correct,motorcycle,label,,1595340536296,match,162,female/ weiblich,motorcycle,label_correct,y,deutsch,materials/images/motorcycle_big_1.jpg, ,materials/labels/motorcycle_male.wav,Tue Jul 21 2020 15:39:14 GMT+0200 (Mitteleuropäische Sommerzeit),1595338754344,29.6992,156,main
1579,777,24,,incorrect,bird,sound,,1595340536296,match,162,female/ weiblich,bird,incongruent,n,deutsch,materials/images/bird_sparrow_1.jpg, ,materials/sounds/bird_owl.wav,Tue Jul 21 2020 15:39:14 GMT+0200 (Mitteleuropäische Sommerzeit),1595338754344,29.6992,157,main
1579,779,24,,correct,drum,label,,1595340536296,match,162,female/ weiblich,drum,label_correct,y,deutsch,materials/images/drum_bongo_2.jpg, ,materials/labels/drum_female.wav,Tue Jul 21 2020 15:39:14 GMT+0200 (Mitteleuropäische Sommerzeit),1595338754344,29.6992,158,main
1579,795,24,,correct,drum,sound,,1595340536296,match,162,female/ weiblich,drum,incongruent,y,deutsch,materials/images/drum_kit_1.jpg, ,materials/sounds/drum_bongo.wav,Tue Jul 21 2020 15:39:14 GMT+0200 (Mitteleuropäische Sommerzeit),1595338754344,29.6992,159,main
1579,497,24,,correct,bird,sound,,1595340536296,match,162,female/ weiblich,bird,congruent,y,deutsch,materials/images/bird_sparrow_1.jpg, ,materials/sounds/bird_sparrow.wav,Tue Jul 21 2020 15:39:14 GMT+0200 (Mitteleuropäische Sommerzeit),1595338754344,29.6992,160,main
1579,635,24,,correct,drum,sound,,1595340536296,match,162,female/ weiblich,drum,incongruent,y,deutsch,materials/images/drum_kit_2.jpg, ,materials/sounds/drum_bongo.wav,Tue Jul 21 2020 15:39:14 GMT+0200 (Mitteleuropäische Sommerzeit),1595338754344,29.6992,161,main
1579,587,24,,correct,bird,label,,1595340536296,no match,162,female/ weiblich,motorcycle,label_incorrect,n,deutsch,materials/images/motorcycle_big_1.jpg, ,materials/labels/bird_male.wav,Tue Jul 21 2020 15:39:14 GMT+0200 (Mitteleuropäische Sommerzeit),1595338754344,29.6992,162,main
1579,1463,24,,correct,motorcycle,label,,1595340536296,no match,162,female/ weiblich,drum,label_incorrect,n,deutsch,materials/images/drum_bongo_1.jpg, ,materials/labels/motorcycle_male.wav,Tue Jul 21 2020 15:39:14 GMT+0200 (Mitteleuropäische Sommerzeit),1595338754344,29.6992,163,main
1579,512,24,,correct,drum,label,,1595340536296,match,162,female/ weiblich,drum,label_correct,y,deutsch,materials/images/drum_bongo_1.jpg, ,materials/labels/drum_female.wav,Tue Jul 21 2020 15:39:14 GMT+0200 (Mitteleuropäische Sommerzeit),1595338754344,29.6992,164,main
1579,608,24,,correct,drum,sound,,1595340536296,no match,162,female/ weiblich,dog,sound_incorrect,n,deutsch,materials/images/dog_labmix_1.jpg, ,materials/sounds/drum_bongo.wav,Tue Jul 21 2020 15:39:14 GMT+0200 (Mitteleuropäische Sommerzeit),1595338754344,29.6992,165,main
1579,584,24,,correct,drum,sound,,1595340536296,no match,162,female/ weiblich,guitar,sound_incorrect,n,deutsch,materials/images/guitar_acoustic_1.jpg, ,materials/sounds/drum_kit.wav,Tue Jul 21 2020 15:39:14 GMT+0200 (Mitteleuropäische Sommerzeit),1595338754344,29.6992,166,main
1579,491,24,,correct,motorcycle,sound,,1595340536296,no match,162,female/ weiblich,bird,sound_incorrect,n,deutsch,materials/images/bird_sparrow_1.jpg, ,materials/sounds/motorcycle_big.wav,Tue Jul 21 2020 15:39:14 GMT+0200 (Mitteleuropäische Sommerzeit),1595338754344,29.6992,167,main
1579,468,24,,correct,dog,sound,,1595340536296,match,162,female/ weiblich,dog,incongruent,y,deutsch,materials/images/dog_poodle_1.jpg, ,materials/sounds/dog_labmix.wav,Tue Jul 21 2020 15:39:14 GMT+0200 (Mitteleuropäische Sommerzeit),1595338754344,29.6992,168,main
1579,658,24,,correct,motorcycle,label,,1595340536296,no match,162,female/ weiblich,guitar,label_incorrect,n,deutsch,materials/images/guitar_acoustic_2.jpg, ,materials/labels/motorcycle_female.wav,Tue Jul 21 2020 15:39:14 GMT+0200 (Mitteleuropäische Sommerzeit),1595338754344,29.6992,169,main
1579,611,24,,correct,drum,sound,,1595340536296,no match,162,female/ weiblich,bird,sound_incorrect,n,deutsch,materials/images/bird_sparrow_1.jpg, ,materials/sounds/drum_kit.wav,Tue Jul 21 2020 15:39:14 GMT+0200 (Mitteleuropäische Sommerzeit),1595338754344,29.6992,170,main
1579,564,24,,correct,motorcycle,sound,,1595340536296,match,162,female/ weiblich,motorcycle,incongruent,y,deutsch,materials/images/motorcycle_big_2.jpg, ,materials/sounds/motorcycle_small.wav,Tue Jul 21 2020 15:39:14 GMT+0200 (Mitteleuropäische Sommerzeit),1595338754344,29.6992,171,main
1579,833,24,,correct,bird,sound,,1595340536296,match,162,female/ weiblich,bird,incongruent,y,deutsch,materials/images/bird_owl_1.jpg, ,materials/sounds/bird_sparrow.wav,Tue Jul 21 2020 15:39:14 GMT+0200 (Mitteleuropäische Sommerzeit),1595338754344,29.6992,172,main
1579,768,24,,correct,drum,sound,,1595340536296,no match,162,female/ weiblich,motorcycle,sound_incorrect,n,deutsch,materials/images/motorcycle_small_1.jpg, ,materials/sounds/drum_bongo.wav,Tue Jul 21 2020 15:39:14 GMT+0200 (Mitteleuropäische Sommerzeit),1595338754344,29.6992,173,main
1579,655,24,,correct,dog,label,,1595340536296,match,162,female/ weiblich,dog,label_correct,y,deutsch,materials/images/dog_labmix_1.jpg, ,materials/labels/dog_female.wav,Tue Jul 21 2020 15:39:14 GMT+0200 (Mitteleuropäische Sommerzeit),1595338754344,29.6992,174,main
1579,612,24,,correct,motorcycle,label,,1595340536296,no match,162,female/ weiblich,dog,label_incorrect,n,deutsch,materials/images/dog_poodle_2.jpg, ,materials/labels/motorcycle_male.wav,Tue Jul 21 2020 15:39:14 GMT+0200 (Mitteleuropäische Sommerzeit),1595338754344,29.6992,175,main
1579,710,24,,correct,phone,sound,,1595340536296,match,162,female/ weiblich,phone,congruent,y,deutsch,materials/images/phone_cell_2.jpg, ,materials/sounds/phone_cell.wav,Tue Jul 21 2020 15:39:14 GMT+0200 (Mitteleuropäische Sommerzeit),1595338754344,29.6992,176,main
1579,654,24,,correct,phone,sound,,1595340536296,match,162,female/ weiblich,phone,congruent,y,deutsch,materials/images/phone_rotary_1.jpg, ,materials/sounds/phone_rotary.wav,Tue Jul 21 2020 15:39:14 GMT+0200 (Mitteleuropäische Sommerzeit),1595338754344,29.6992,177,main
1579,617,24,,correct,drum,label,,1595340536296,match,162,female/ weiblich,drum,label_correct,y,deutsch,materials/images/drum_bongo_2.jpg, ,materials/labels/drum_male.wav,Tue Jul 21 2020 15:39:14 GMT+0200 (Mitteleuropäische Sommerzeit),1595338754344,29.6992,178,main
1579,598,24,,correct,bird,label,,1595340536296,no match,162,female/ weiblich,dog,label_incorrect,n,deutsch,materials/images/dog_poodle_1.jpg, ,materials/labels/bird_male.wav,Tue Jul 21 2020 15:39:14 GMT+0200 (Mitteleuropäische Sommerzeit),1595338754344,29.6992,179,main
1579,585,24,,correct,phone,label,,1595340536296,match,162,female/ weiblich,phone,label_correct,y,deutsch,materials/images/phone_rotary_1.jpg, ,materials/labels/phone_male.wav,Tue Jul 21 2020 15:39:14 GMT+0200 (Mitteleuropäische Sommerzeit),1595338754344,29.6992,180,main
1579,908,24,,correct,motorcycle,label,,1595340536296,match,162,female/ weiblich,motorcycle,label_correct,y,deutsch,materials/images/motorcycle_big_1.jpg, ,materials/labels/motorcycle_female.wav,Tue Jul 21 2020 15:39:14 GMT+0200 (Mitteleuropäische Sommerzeit),1595338754344,29.6992,181,main
1579,726,24,,correct,drum,label,,1595340536296,no match,162,female/ weiblich,phone,label_incorrect,n,deutsch,materials/images/phone_rotary_2.jpg, ,materials/labels/drum_male.wav,Tue Jul 21 2020 15:39:14 GMT+0200 (Mitteleuropäische Sommerzeit),1595338754344,29.6992,182,main
1579,582,24,,correct,phone,sound,,1595340536296,match,162,female/ weiblich,phone,incongruent,y,deutsch,materials/images/phone_rotary_1.jpg, ,materials/sounds/phone_cell.wav,Tue Jul 21 2020 15:39:14 GMT+0200 (Mitteleuropäische Sommerzeit),1595338754344,29.6992,183,main
1579,642,24,,correct,bird,label,,1595340536296,no match,162,female/ weiblich,drum,label_incorrect,n,deutsch,materials/images/drum_bongo_1.jpg, ,materials/labels/bird_male.wav,Tue Jul 21 2020 15:39:14 GMT+0200 (Mitteleuropäische Sommerzeit),1595338754344,29.6992,184,main
1579,1047,24,,correct,motorcycle,label,,1595340536296,match,162,female/ weiblich,motorcycle,label_correct,y,deutsch,materials/images/motorcycle_small_2.jpg, ,materials/labels/motorcycle_male.wav,Tue Jul 21 2020 15:39:14 GMT+0200 (Mitteleuropäische Sommerzeit),1595338754344,29.6992,185,main
1579,721,24,,correct,bird,label,,1595340536296,match,162,female/ weiblich,bird,label_correct,y,deutsch,materials/images/bird_owl_2.jpg, ,materials/labels/bird_female.wav,Tue Jul 21 2020 15:39:14 GMT+0200 (Mitteleuropäische Sommerzeit),1595338754344,29.6992,186,main
1579,818,24,,correct,bird,sound,,1595340536296,match,162,female/ weiblich,bird,incongruent,y,deutsch,materials/images/bird_sparrow_2.jpg, ,materials/sounds/bird_owl.wav,Tue Jul 21 2020 15:39:14 GMT+0200 (Mitteleuropäische Sommerzeit),1595338754344,29.6992,187,main
1579,766,24,,correct,bird,label,,1595340536296,match,162,female/ weiblich,bird,label_correct,y,deutsch,materials/images/bird_sparrow_1.jpg, ,materials/labels/bird_female.wav,Tue Jul 21 2020 15:39:14 GMT+0200 (Mitteleuropäische Sommerzeit),1595338754344,29.6992,188,main
1579,462,24,,correct,dog,label,,1595340536296,match,162,female/ weiblich,dog,label_correct,y,deutsch,materials/images/dog_poodle_2.jpg, ,materials/labels/dog_female.wav,Tue Jul 21 2020 15:39:14 GMT+0200 (Mitteleuropäische Sommerzeit),1595338754344,29.6992,189,main
1579,653,24,,correct,guitar,label,,1595340536296,match,162,female/ weiblich,guitar,label_correct,y,deutsch,materials/images/guitar_electric_2.jpg, ,materials/labels/guitar_male.wav,Tue Jul 21 2020 15:39:14 GMT+0200 (Mitteleuropäische Sommerzeit),1595338754344,29.6992,190,main
1579,496,24,,correct,phone,sound,,1595340536296,match,162,female/ weiblich,phone,congruent,y,deutsch,materials/images/phone_cell_1.jpg, ,materials/sounds/phone_cell.wav,Tue Jul 21 2020 15:39:14 GMT+0200 (Mitteleuropäische Sommerzeit),1595338754344,29.6992,191,main
1579,529,24,,correct,guitar,label,,1595340536296,match,162,female/ weiblich,guitar,label_correct,y,deutsch,materials/images/guitar_electric_2.jpg, ,materials/labels/guitar_female.wav,Tue Jul 21 2020 15:39:14 GMT+0200 (Mitteleuropäische Sommerzeit),1595338754344,29.6992,192,main
1578,2872,64,,correct,bird,label,Higher Degree/ Universitärer Abschluss,1595337542943,match,162,male/ männlich,bird,label_correct,y,deutsch,materials/images/bird_owl_1.jpg, ,materials/labels/bird_female.wav,Tue Jul 21 2020 15:00:03 GMT+0200 (Mitteleuropäische Sommerzeit),1595336403603,18.989,1,practice
1578,3893,64,,incorrect,bird,sound,Higher Degree/ Universitärer Abschluss,1595337542943,match,162,male/ männlich,bird,congruent,n,deutsch,materials/images/bird_owl_1.jpg, ,materials/sounds/bird_owl.wav,Tue Jul 21 2020 15:00:03 GMT+0200 (Mitteleuropäische Sommerzeit),1595336403603,18.989,2,practice
1578,2010,64,,correct,bird,sound,Higher Degree/ Universitärer Abschluss,1595337542943,match,162,male/ männlich,bird,incongruent,y,deutsch,materials/images/bird_sparrow_1.jpg, ,materials/sounds/bird_owl.wav,Tue Jul 21 2020 15:00:03 GMT+0200 (Mitteleuropäische Sommerzeit),1595336403603,18.989,3,practice
1578,2730,64,,correct,motorcycle,label,Higher Degree/ Universitärer Abschluss,1595337542943,no match,162,male/ männlich,guitar,label_incorrect,n,deutsch,materials/images/guitar_electric_1.jpg, ,materials/labels/motorcycle_male.wav,Tue Jul 21 2020 15:00:03 GMT+0200 (Mitteleuropäische Sommerzeit),1595336403603,18.989,4,practice
1578,2410,64,,correct,bird,sound,Higher Degree/ Universitärer Abschluss,1595337542943,no match,162,male/ männlich,motorcycle,sound_incorrect,n,deutsch,materials/images/motorcycle_big_1.jpg, ,materials/sounds/bird_owl.wav,Tue Jul 21 2020 15:00:03 GMT+0200 (Mitteleuropäische Sommerzeit),1595336403603,18.989,5,practice
1578,2088,64,,correct,drum,label,Higher Degree/ Universitärer Abschluss,1595337542943,no match,162,male/ männlich,guitar,label_incorrect,n,deutsch,materials/images/guitar_acoustic_2.jpg, ,materials/labels/drum_male.wav,Tue Jul 21 2020 15:00:03 GMT+0200 (Mitteleuropäische Sommerzeit),1595336403603,18.989,6,practice
1578,3032,64,,correct,motorcycle,label,Higher Degree/ Universitärer Abschluss,1595337542943,match,162,male/ männlich,motorcycle,label_correct,y,deutsch,materials/images/motorcycle_big_2.jpg, ,materials/labels/motorcycle_female.wav,Tue Jul 21 2020 15:00:03 GMT+0200 (Mitteleuropäische Sommerzeit),1595336403603,18.989,1,main
1578,2131,64,,correct,dog,sound,Higher Degree/ Universitärer Abschluss,1595337542943,match,162,male/ männlich,dog,congruent,y,deutsch,materials/images/dog_poodle_1.jpg, ,materials/sounds/dog_poodle.wav,Tue Jul 21 2020 15:00:03 GMT+0200 (Mitteleuropäische Sommerzeit),1595336403603,18.989,2,main
1578,1752,64,,correct,guitar,sound,Higher Degree/ Universitärer Abschluss,1595337542943,match,162,male/ männlich,guitar,incongruent,y,deutsch,materials/images/guitar_electric_2.jpg, ,materials/sounds/guitar_acoustic.wav,Tue Jul 21 2020 15:00:03 GMT+0200 (Mitteleuropäische Sommerzeit),1595336403603,18.989,3,main
1578,1466,64,,correct,guitar,label,Higher Degree/ Universitärer Abschluss,1595337542943,match,162,male/ männlich,guitar,label_correct,y,deutsch,materials/images/guitar_acoustic_1.jpg, ,materials/labels/guitar_female.wav,Tue Jul 21 2020 15:00:03 GMT+0200 (Mitteleuropäische Sommerzeit),1595336403603,18.989,4,main
1578,2367,64,,correct,dog,label,Higher Degree/ Universitärer Abschluss,1595337542943,no match,162,male/ männlich,bird,label_incorrect,n,deutsch,materials/images/bird_owl_2.jpg, ,materials/labels/dog_female.wav,Tue Jul 21 2020 15:00:03 GMT+0200 (Mitteleuropäische Sommerzeit),1595336403603,18.989,5,main
1578,1715,64,,correct,motorcycle,sound,Higher Degree/ Universitärer Abschluss,1595337542943,no match,162,male/ männlich,bird,sound_incorrect,n,deutsch,materials/images/bird_sparrow_2.jpg, ,materials/sounds/motorcycle_big.wav,Tue Jul 21 2020 15:00:03 GMT+0200 (Mitteleuropäische Sommerzeit),1595336403603,18.989,6,main
1578,1676,64,,correct,drum,label,Higher Degree/ Universitärer Abschluss,1595337542943,match,162,male/ männlich,drum,label_correct,y,deutsch,materials/images/drum_kit_2.jpg, ,materials/labels/drum_male.wav,Tue Jul 21 2020 15:00:03 GMT+0200 (Mitteleuropäische Sommerzeit),1595336403603,18.989,7,main
1578,1033,64,,incorrect,bird,label,Higher Degree/ Universitärer Abschluss,1595337542943,match,162,male/ männlich,bird,label_correct,n,deutsch,materials/images/bird_owl_2.jpg, ,materials/labels/bird_male.wav,Tue Jul 21 2020 15:00:03 GMT+0200 (Mitteleuropäische Sommerzeit),1595336403603,18.989,8,main
1578,1454,64,,correct,motorcycle,sound,Higher Degree/ Universitärer Abschluss,1595337542943,no match,162,male/ männlich,bird,sound_incorrect,n,deutsch,materials/images/bird_owl_1.jpg, ,materials/sounds/motorcycle_big.wav,Tue Jul 21 2020 15:00:03 GMT+0200 (Mitteleuropäische Sommerzeit),1595336403603,18.989,9,main
1578,1690,64,,correct,phone,label,Higher Degree/ Universitärer Abschluss,1595337542943,no match,162,male/ männlich,drum,label_incorrect,n,deutsch,materials/images/drum_bongo_2.jpg, ,materials/labels/phone_female.wav,Tue Jul 21 2020 15:00:03 GMT+0200 (Mitteleuropäische Sommerzeit),1595336403603,18.989,10,main
1578,2172,64,,correct,phone,sound,Higher Degree/ Universitärer Abschluss,1595337542943,match,162,male/ männlich,phone,congruent,y,deutsch,materials/images/phone_rotary_1.jpg, ,materials/sounds/phone_rotary.wav,Tue Jul 21 2020 15:00:03 GMT+0200 (Mitteleuropäische Sommerzeit),1595336403603,18.989,11,main
1578,2741,64,,correct,drum,sound,Higher Degree/ Universitärer Abschluss,1595337542943,no match,162,male/ männlich,phone,sound_incorrect,n,deutsch,materials/images/phone_cell_2.jpg, ,materials/sounds/drum_bongo.wav,Tue Jul 21 2020 15:00:03 GMT+0200 (Mitteleuropäische Sommerzeit),1595336403603,18.989,12,main
1578,1232,64,,correct,dog,label,Higher Degree/ Universitärer Abschluss,1595337542943,no match,162,male/ männlich,phone,label_incorrect,n,deutsch,materials/images/phone_cell_2.jpg, ,materials/labels/dog_female.wav,Tue Jul 21 2020 15:00:03 GMT+0200 (Mitteleuropäische Sommerzeit),1595336403603,18.989,13,main
1578,866,64,,correct,bird,label,Higher Degree/ Universitärer Abschluss,1595337542943,no match,162,male/ männlich,phone,label_incorrect,n,deutsch,materials/images/phone_rotary_1.jpg, ,materials/labels/bird_male.wav,Tue Jul 21 2020 15:00:03 GMT+0200 (Mitteleuropäische Sommerzeit),1595336403603,18.989,14,main
1578,870,64,,correct,motorcycle,sound,Higher Degree/ Universitärer Abschluss,1595337542943,no match,162,male/ männlich,guitar,sound_incorrect,n,deutsch,materials/images/guitar_electric_1.jpg, ,materials/sounds/motorcycle_big.wav,Tue Jul 21 2020 15:00:03 GMT+0200 (Mitteleuropäische Sommerzeit),1595336403603,18.989,15,main
1578,1768,64,,correct,dog,sound,Higher Degree/ Universitärer Abschluss,1595337542943,match,162,male/ männlich,dog,incongruent,y,deutsch,materials/images/dog_poodle_2.jpg, ,materials/sounds/dog_labmix.wav,Tue Jul 21 2020 15:00:03 GMT+0200 (Mitteleuropäische Sommerzeit),1595336403603,18.989,16,main
1578,781,64,,correct,drum,sound,Higher Degree/ Universitärer Abschluss,1595337542943,no match,162,male/ männlich,phone,sound_incorrect,n,deutsch,materials/images/phone_rotary_1.jpg, ,materials/sounds/drum_bongo.wav,Tue Jul 21 2020 15:00:03 GMT+0200 (Mitteleuropäische Sommerzeit),1595336403603,18.989,17,main
1578,2581,64,,correct,phone,label,Higher Degree/ Universitärer Abschluss,1595337542943,no match,162,male/ männlich,dog,label_incorrect,n,deutsch,materials/images/dog_labmix_1.jpg, ,materials/labels/phone_female.wav,Tue Jul 21 2020 15:00:03 GMT+0200 (Mitteleuropäische Sommerzeit),1595336403603,18.989,18,main
1578,1360,64,,correct,phone,label,Higher Degree/ Universitärer Abschluss,1595337542943,no match,162,male/ männlich,bird,label_incorrect,n,deutsch,materials/images/bird_owl_1.jpg, ,materials/labels/phone_male.wav,Tue Jul 21 2020 15:00:03 GMT+0200 (Mitteleuropäische Sommerzeit),1595336403603,18.989,19,main
1578,1861,64,,correct,motorcycle,label,Higher Degree/ Universitärer Abschluss,1595337542943,match,162,male/ männlich,motorcycle,label_correct,y,deutsch,materials/images/motorcycle_small_2.jpg, ,materials/labels/motorcycle_male.wav,Tue Jul 21 2020 15:00:03 GMT+0200 (Mitteleuropäische Sommerzeit),1595336403603,18.989,20,main
1578,1773,64,,correct,motorcycle,sound,Higher Degree/ Universitärer Abschluss,1595337542943,no match,162,male/ männlich,dog,sound_incorrect,n,deutsch,materials/images/dog_poodle_2.jpg, ,materials/sounds/motorcycle_small.wav,Tue Jul 21 2020 15:00:03 GMT+0200 (Mitteleuropäische Sommerzeit),1595336403603,18.989,21,main
1578,1135,64,,correct,bird,sound,Higher Degree/ Universitärer Abschluss,1595337542943,no match,162,male/ männlich,guitar,sound_incorrect,n,deutsch,materials/images/guitar_electric_1.jpg, ,materials/sounds/bird_owl.wav,Tue Jul 21 2020 15:00:03 GMT+0200 (Mitteleuropäische Sommerzeit),1595336403603,18.989,22,main
1578,1577,64,,correct,phone,label,Higher Degree/ Universitärer Abschluss,1595337542943,match,162,male/ männlich,phone,label_correct,y,deutsch,materials/images/phone_cell_1.jpg, ,materials/labels/phone_female.wav,Tue Jul 21 2020 15:00:03 GMT+0200 (Mitteleuropäische Sommerzeit),1595336403603,18.989,23,main
1578,1017,64,,correct,bird,label,Higher Degree/ Universitärer Abschluss,1595337542943,no match,162,male/ männlich,drum,label_incorrect,n,deutsch,materials/images/drum_bongo_2.jpg, ,materials/labels/bird_male.wav,Tue Jul 21 2020 15:00:03 GMT+0200 (Mitteleuropäische Sommerzeit),1595336403603,18.989,24,main
1578,3230,64,,correct,drum,sound,Higher Degree/ Universitärer Abschluss,1595337542943,match,162,male/ männlich,drum,incongruent,y,deutsch,materials/images/drum_bongo_2.jpg, ,materials/sounds/drum_kit.wav,Tue Jul 21 2020 15:00:03 GMT+0200 (Mitteleuropäische Sommerzeit),1595336403603,18.989,25,main
1578,1141,64,,correct,motorcycle,sound,Higher Degree/ Universitärer Abschluss,1595337542943,no match,162,male/ männlich,bird,sound_incorrect,n,deutsch,materials/images/bird_owl_2.jpg, ,materials/sounds/motorcycle_small.wav,Tue Jul 21 2020 15:00:03 GMT+0200 (Mitteleuropäische Sommerzeit),1595336403603,18.989,26,main
1578,1059,64,,correct,dog,sound,Higher Degree/ Universitärer Abschluss,1595337542943,match,162,male/ männlich,dog,incongruent,y,deutsch,materials/images/dog_labmix_1.jpg, ,materials/sounds/dog_poodle.wav,Tue Jul 21 2020 15:00:03 GMT+0200 (Mitteleuropäische Sommerzeit),1595336403603,18.989,27,main
1578,1655,64,,correct,phone,sound,Higher Degree/ Universitärer Abschluss,1595337542943,match,162,male/ männlich,phone,congruent,y,deutsch,materials/images/phone_rotary_2.jpg, ,materials/sounds/phone_rotary.wav,Tue Jul 21 2020 15:00:03 GMT+0200 (Mitteleuropäische Sommerzeit),1595336403603,18.989,28,main
1578,897,64,,correct,drum,label,Higher Degree/ Universitärer Abschluss,1595337542943,no match,162,male/ männlich,guitar,label_incorrect,n,deutsch,materials/images/guitar_acoustic_1.jpg, ,materials/labels/drum_male.wav,Tue Jul 21 2020 15:00:03 GMT+0200 (Mitteleuropäische Sommerzeit),1595336403603,18.989,29,main
1578,944,64,,correct,dog,label,Higher Degree/ Universitärer Abschluss,1595337542943,no match,162,male/ männlich,guitar,label_incorrect,n,deutsch,materials/images/guitar_acoustic_1.jpg, ,materials/labels/dog_female.wav,Tue Jul 21 2020 15:00:03 GMT+0200 (Mitteleuropäische Sommerzeit),1595336403603,18.989,30,main
1578,753,64,,correct,motorcycle,sound,Higher Degree/ Universitärer Abschluss,1595337542943,match,162,male/ männlich,motorcycle,congruent,y,deutsch,materials/images/motorcycle_big_1.jpg, ,materials/sounds/motorcycle_big.wav,Tue Jul 21 2020 15:00:03 GMT+0200 (Mitteleuropäische Sommerzeit),1595336403603,18.989,31,main
1578,1122,64,,correct,guitar,label,Higher Degree/ Universitärer Abschluss,1595337542943,match,162,male/ männlich,guitar,label_correct,y,deutsch,materials/images/guitar_electric_2.jpg, ,materials/labels/guitar_female.wav,Tue Jul 21 2020 15:00:03 GMT+0200 (Mitteleuropäische Sommerzeit),1595336403603,18.989,32,main
1578,898,64,,correct,bird,label,Higher Degree/ Universitärer Abschluss,1595337542943,no match,162,male/ männlich,dog,label_incorrect,n,deutsch,materials/images/dog_poodle_1.jpg, ,materials/labels/bird_male.wav,Tue Jul 21 2020 15:00:03 GMT+0200 (Mitteleuropäische Sommerzeit),1595336403603,18.989,33,main
1578,1528,64,,correct,guitar,sound,Higher Degree/ Universitärer Abschluss,1595337542943,match,162,male/ männlich,guitar,congruent,y,deutsch,materials/images/guitar_electric_1.jpg, ,materials/sounds/guitar_electric.wav,Tue Jul 21 2020 15:00:03 GMT+0200 (Mitteleuropäische Sommerzeit),1595336403603,18.989,34,main
1578,1290,64,,correct,phone,label,Higher Degree/ Universitärer Abschluss,1595337542943,no match,162,male/ männlich,guitar,label_incorrect,n,deutsch,materials/images/guitar_acoustic_2.jpg, ,materials/labels/phone_female.wav,Tue Jul 21 2020 15:00:03 GMT+0200 (Mitteleuropäische Sommerzeit),1595336403603,18.989,35,main
1578,2235,64,,correct,bird,sound,Higher Degree/ Universitärer Abschluss,1595337542943,no match,162,male/ männlich,motorcycle,sound_incorrect,n,deutsch,materials/images/motorcycle_small_1.jpg, ,materials/sounds/bird_owl.wav,Tue Jul 21 2020 15:00:03 GMT+0200 (Mitteleuropäische Sommerzeit),1595336403603,18.989,36,main
1578,2059,64,,correct,phone,sound,Higher Degree/ Universitärer Abschluss,1595337542943,match,162,male/ männlich,phone,incongruent,y,deutsch,materials/images/phone_rotary_1.jpg, ,materials/sounds/phone_cell.wav,Tue Jul 21 2020 15:00:03 GMT+0200 (Mitteleuropäische Sommerzeit),1595336403603,18.989,37,main
1578,755,64,,correct,motorcycle,sound,Higher Degree/ Universitärer Abschluss,1595337542943,no match,162,male/ männlich,drum,sound_incorrect,n,deutsch,materials/images/drum_bongo_2.jpg, ,materials/sounds/motorcycle_big.wav,Tue Jul 21 2020 15:00:03 GMT+0200 (Mitteleuropäische Sommerzeit),1595336403603,18.989,38,main
1578,664,64,,correct,motorcycle,label,Higher Degree/ Universitärer Abschluss,1595337542943,match,162,male/ männlich,motorcycle,label_correct,y,deutsch,materials/images/motorcycle_small_1.jpg, ,materials/labels/motorcycle_female.wav,Tue Jul 21 2020 15:00:03 GMT+0200 (Mitteleuropäische Sommerzeit),1595336403603,18.989,39,main
1578,1155,64,,incorrect,motorcycle,sound,Higher Degree/ Universitärer Abschluss,1595337542943,match,162,male/ männlich,motorcycle,congruent,n,deutsch,materials/images/motorcycle_small_1.jpg, ,materials/sounds/motorcycle_small.wav,Tue Jul 21 2020 15:00:03 GMT+0200 (Mitteleuropäische Sommerzeit),1595336403603,18.989,40,main
1578,2164,64,,correct,phone,label,Higher Degree/ Universitärer Abschluss,1595337542943,no match,162,male/ männlich,dog,label_incorrect,n,deutsch,materials/images/dog_poodle_1.jpg, ,materials/labels/phone_female.wav,Tue Jul 21 2020 15:00:03 GMT+0200 (Mitteleuropäische Sommerzeit),1595336403603,18.989,41,main
1578,1436,64,,correct,drum,label,Higher Degree/ Universitärer Abschluss,1595337542943,match,162,male/ männlich,drum,label_correct,y,deutsch,materials/images/drum_bongo_2.jpg, ,materials/labels/drum_male.wav,Tue Jul 21 2020 15:00:03 GMT+0200 (Mitteleuropäische Sommerzeit),1595336403603,18.989,42,main
1578,2390,64,,correct,bird,sound,Higher Degree/ Universitärer Abschluss,1595337542943,match,162,male/ männlich,bird,incongruent,y,deutsch,materials/images/bird_owl_2.jpg, ,materials/sounds/bird_sparrow.wav,Tue Jul 21 2020 15:00:03 GMT+0200 (Mitteleuropäische Sommerzeit),1595336403603,18.989,43,main
1578,1265,64,,correct,bird,sound,Higher Degree/ Universitärer Abschluss,1595337542943,no match,162,male/ männlich,guitar,sound_incorrect,n,deutsch,materials/images/guitar_acoustic_1.jpg, ,materials/sounds/bird_sparrow.wav,Tue Jul 21 2020 15:00:03 GMT+0200 (Mitteleuropäische Sommerzeit),1595336403603,18.989,44,main
1578,1737,64,,correct,drum,label,Higher Degree/ Universitärer Abschluss,1595337542943,match,162,male/ männlich,drum,label_correct,y,deutsch,materials/images/drum_bongo_2.jpg, ,materials/labels/drum_female.wav,Tue Jul 21 2020 15:00:03 GMT+0200 (Mitteleuropäische Sommerzeit),1595336403603,18.989,45,main
1578,1108,64,,correct,bird,sound,Higher Degree/ Universitärer Abschluss,1595337542943,no match,162,male/ männlich,motorcycle,sound_incorrect,n,deutsch,materials/images/motorcycle_small_1.jpg, ,materials/sounds/bird_sparrow.wav,Tue Jul 21 2020 15:00:03 GMT+0200 (Mitteleuropäische Sommerzeit),1595336403603,18.989,46,main
1578,1428,64,,correct,motorcycle,sound,Higher Degree/ Universitärer Abschluss,1595337542943,no match,162,male/ männlich,drum,sound_incorrect,n,deutsch,materials/images/drum_bongo_2.jpg, ,materials/sounds/motorcycle_small.wav,Tue Jul 21 2020 15:00:03 GMT+0200 (Mitteleuropäische Sommerzeit),1595336403603,18.989,47,main
1578,614,64,,correct,guitar,sound,Higher Degree/ Universitärer Abschluss,1595337542943,match,162,male/ männlich,guitar,incongruent,y,deutsch,materials/images/guitar_acoustic_1.jpg, ,materials/sounds/guitar_electric.wav,Tue Jul 21 2020 15:00:03 GMT+0200 (Mitteleuropäische Sommerzeit),1595336403603,18.989,48,main
1578,1251,64,,correct,bird,sound,Higher Degree/ Universitärer Abschluss,1595337542943,match,162,male/ männlich,bird,congruent,y,deutsch,materials/images/bird_owl_1.jpg, ,materials/sounds/bird_owl.wav,Tue Jul 21 2020 15:00:03 GMT+0200 (Mitteleuropäische Sommerzeit),1595336403603,18.989,49,main
1578,939,64,,correct,drum,label,Higher Degree/ Universitärer Abschluss,1595337542943,match,162,male/ männlich,drum,label_correct,y,deutsch,materials/images/drum_kit_2.jpg, ,materials/labels/drum_female.wav,Tue Jul 21 2020 15:00:03 GMT+0200 (Mitteleuropäische Sommerzeit),1595336403603,18.989,50,main
1578,1062,64,,correct,phone,sound,Higher Degree/ Universitärer Abschluss,1595337542943,match,162,male/ männlich,phone,incongruent,y,deutsch,materials/images/phone_cell_2.jpg, ,materials/sounds/phone_rotary.wav,Tue Jul 21 2020 15:00:03 GMT+0200 (Mitteleuropäische Sommerzeit),1595336403603,18.989,51,main
1578,1564,64,,correct,dog,label,Higher Degree/ Universitärer Abschluss,1595337542943,no match,162,male/ männlich,drum,label_incorrect,n,deutsch,materials/images/drum_kit_2.jpg, ,materials/labels/dog_male.wav,Tue Jul 21 2020 15:00:03 GMT+0200 (Mitteleuropäische Sommerzeit),1595336403603,18.989,52,main
1578,1639,64,,correct,phone,label,Higher Degree/ Universitärer Abschluss,1595337542943,match,162,male/ männlich,phone,label_correct,y,deutsch,materials/images/phone_rotary_1.jpg, ,materials/labels/phone_male.wav,Tue Jul 21 2020 15:00:03 GMT+0200 (Mitteleuropäische Sommerzeit),1595336403603,18.989,53,main
1578,807,64,,correct,phone,label,Higher Degree/ Universitärer Abschluss,1595337542943,match,162,male/ männlich,phone,label_correct,y,deutsch,materials/images/phone_rotary_2.jpg, ,materials/labels/phone_female.wav,Tue Jul 21 2020 15:00:03 GMT+0200 (Mitteleuropäische Sommerzeit),1595336403603,18.989,54,main
1578,843,64,,correct,drum,label,Higher Degree/ Universitärer Abschluss,1595337542943,no match,162,male/ männlich,guitar,label_incorrect,n,deutsch,materials/images/guitar_electric_2.jpg, ,materials/labels/drum_male.wav,Tue Jul 21 2020 15:00:03 GMT+0200 (Mitteleuropäische Sommerzeit),1595336403603,18.989,55,main
1578,2697,64,,correct,motorcycle,sound,Higher Degree/ Universitärer Abschluss,1595337542943,no match,162,male/ männlich,drum,sound_incorrect,n,deutsch,materials/images/drum_kit_1.jpg, ,materials/sounds/motorcycle_small.wav,Tue Jul 21 2020 15:00:03 GMT+0200 (Mitteleuropäische Sommerzeit),1595336403603,18.989,56,main
1578,1133,64,,correct,bird,label,Higher Degree/ Universitärer Abschluss,1595337542943,match,162,male/ männlich,bird,label_correct,y,deutsch,materials/images/bird_sparrow_1.jpg, ,materials/labels/bird_male.wav,Tue Jul 21 2020 15:00:03 GMT+0200 (Mitteleuropäische Sommerzeit),1595336403603,18.989,57,main
1578,922,64,,correct,bird,sound,Higher Degree/ Universitärer Abschluss,1595337542943,no match,162,male/ männlich,motorcycle,sound_incorrect,n,deutsch,materials/images/motorcycle_small_2.jpg, ,materials/sounds/bird_sparrow.wav,Tue Jul 21 2020 15:00:03 GMT+0200 (Mitteleuropäische Sommerzeit),1595336403603,18.989,58,main
1578,1865,64,,correct,drum,label,Higher Degree/ Universitärer Abschluss,1595337542943,match,162,male/ männlich,drum,label_correct,y,deutsch,materials/images/drum_bongo_1.jpg, ,materials/labels/drum_female.wav,Tue Jul 21 2020 15:00:03 GMT+0200 (Mitteleuropäische Sommerzeit),1595336403603,18.989,59,main
1578,3251,64,,correct,motorcycle,sound,Higher Degree/ Universitärer Abschluss,1595337542943,match,162,male/ männlich,motorcycle,incongruent,y,deutsch,materials/images/motorcycle_big_2.jpg, ,materials/sounds/motorcycle_small.wav,Tue Jul 21 2020 15:00:03 GMT+0200 (Mitteleuropäische Sommerzeit),1595336403603,18.989,60,main
1578,1155,64,,correct,phone,sound,Higher Degree/ Universitärer Abschluss,1595337542943,match,162,male/ männlich,phone,incongruent,y,deutsch,materials/images/phone_cell_1.jpg, ,materials/sounds/phone_rotary.wav,Tue Jul 21 2020 15:00:03 GMT+0200 (Mitteleuropäische Sommerzeit),1595336403603,18.989,61,main
1578,935,64,,correct,motorcycle,sound,Higher Degree/ Universitärer Abschluss,1595337542943,match,162,male/ männlich,motorcycle,incongruent,y,deutsch,materials/images/motorcycle_big_1.jpg, ,materials/sounds/motorcycle_small.wav,Tue Jul 21 2020 15:00:03 GMT+0200 (Mitteleuropäische Sommerzeit),1595336403603,18.989,62,main
1578,1229,64,,correct,dog,label,Higher Degree/ Universitärer Abschluss,1595337542943,no match,162,male/ männlich,drum,label_incorrect,n,deutsch,materials/images/drum_bongo_1.jpg, ,materials/labels/dog_female.wav,Tue Jul 21 2020 15:00:03 GMT+0200 (Mitteleuropäische Sommerzeit),1595336403603,18.989,63,main
1578,1014,64,,correct,guitar,sound,Higher Degree/ Universitärer Abschluss,1595337542943,match,162,male/ männlich,guitar,congruent,y,deutsch,materials/images/guitar_acoustic_1.jpg, ,materials/sounds/guitar_acoustic.wav,Tue Jul 21 2020 15:00:03 GMT+0200 (Mitteleuropäische Sommerzeit),1595336403603,18.989,64,main
1578,679,64,,correct,guitar,sound,Higher Degree/ Universitärer Abschluss,1595337542943,match,162,male/ männlich,guitar,incongruent,y,deutsch,materials/images/guitar_acoustic_2.jpg, ,materials/sounds/guitar_electric.wav,Tue Jul 21 2020 15:00:03 GMT+0200 (Mitteleuropäische Sommerzeit),1595336403603,18.989,65,main
1578,1011,64,,correct,bird,sound,Higher Degree/ Universitärer Abschluss,1595337542943,no match,162,male/ männlich,motorcycle,sound_incorrect,n,deutsch,materials/images/motorcycle_big_1.jpg, ,materials/sounds/bird_owl.wav,Tue Jul 21 2020 15:00:03 GMT+0200 (Mitteleuropäische Sommerzeit),1595336403603,18.989,66,main
1578,1279,64,,correct,bird,label,Higher Degree/ Universitärer Abschluss,1595337542943,no match,162,male/ männlich,drum,label_incorrect,n,deutsch,materials/images/drum_kit_2.jpg, ,materials/labels/bird_male.wav,Tue Jul 21 2020 15:00:03 GMT+0200 (Mitteleuropäische Sommerzeit),1595336403603,18.989,67,main
1578,1419,64,,correct,guitar,sound,Higher Degree/ Universitärer Abschluss,1595337542943,match,162,male/ männlich,guitar,congruent,y,deutsch,materials/images/guitar_electric_2.jpg, ,materials/sounds/guitar_electric.wav,Tue Jul 21 2020 15:00:03 GMT+0200 (Mitteleuropäische Sommerzeit),1595336403603,18.989,68,main
1578,925,64,,correct,guitar,label,Higher Degree/ Universitärer Abschluss,1595337542943,match,162,male/ männlich,guitar,label_correct,y,deutsch,materials/images/guitar_electric_2.jpg, ,materials/labels/guitar_male.wav,Tue Jul 21 2020 15:00:03 GMT+0200 (Mitteleuropäische Sommerzeit),1595336403603,18.989,69,main
1578,940,64,,correct,phone,label,Higher Degree/ Universitärer Abschluss,1595337542943,no match,162,male/ männlich,bird,label_incorrect,n,deutsch,materials/images/bird_sparrow_2.jpg, ,materials/labels/phone_male.wav,Tue Jul 21 2020 15:00:03 GMT+0200 (Mitteleuropäische Sommerzeit),1595336403603,18.989,70,main
1578,1413,64,,correct,guitar,label,Higher Degree/ Universitärer Abschluss,1595337542943,match,162,male/ männlich,guitar,label_correct,y,deutsch,materials/images/guitar_electric_1.jpg, ,materials/labels/guitar_female.wav,Tue Jul 21 2020 15:00:03 GMT+0200 (Mitteleuropäische Sommerzeit),1595336403603,18.989,71,main
1578,989,64,,correct,motorcycle,sound,Higher Degree/ Universitärer Abschluss,1595337542943,no match,162,male/ männlich,bird,sound_incorrect,n,deutsch,materials/images/bird_sparrow_1.jpg, ,materials/sounds/motorcycle_small.wav,Tue Jul 21 2020 15:00:03 GMT+0200 (Mitteleuropäische Sommerzeit),1595336403603,18.989,72,main
1578,1297,64,,correct,dog,label,Higher Degree/ Universitärer Abschluss,1595337542943,no match,162,male/ männlich,phone,label_incorrect,n,deutsch,materials/images/phone_cell_1.jpg, ,materials/labels/dog_female.wav,Tue Jul 21 2020 15:00:03 GMT+0200 (Mitteleuropäische Sommerzeit),1595336403603,18.989,73,main
1578,863,64,,correct,motorcycle,label,Higher Degree/ Universitärer Abschluss,1595337542943,no match,162,male/ männlich,bird,label_incorrect,n,deutsch,materials/images/bird_sparrow_1.jpg, ,materials/labels/motorcycle_male.wav,Tue Jul 21 2020 15:00:03 GMT+0200 (Mitteleuropäische Sommerzeit),1595336403603,18.989,74,main
1578,957,64,,correct,guitar,sound,Higher Degree/ Universitärer Abschluss,1595337542943,match,162,male/ männlich,guitar,congruent,y,deutsch,materials/images/guitar_acoustic_2.jpg, ,materials/sounds/guitar_acoustic.wav,Tue Jul 21 2020 15:00:03 GMT+0200 (Mitteleuropäische Sommerzeit),1595336403603,18.989,75,main
1578,1093,64,,correct,motorcycle,sound,Higher Degree/ Universitärer Abschluss,1595337542943,no match,162,male/ männlich,drum,sound_incorrect,n,deutsch,materials/images/drum_kit_1.jpg, ,materials/sounds/motorcycle_big.wav,Tue Jul 21 2020 15:00:03 GMT+0200 (Mitteleuropäische Sommerzeit),1595336403603,18.989,76,main
1578,773,64,,correct,bird,sound,Higher Degree/ Universitärer Abschluss,1595337542943,match,162,male/ männlich,bird,incongruent,y,deutsch,materials/images/bird_sparrow_2.jpg, ,materials/sounds/bird_owl.wav,Tue Jul 21 2020 15:00:03 GMT+0200 (Mitteleuropäische Sommerzeit),1595336403603,18.989,77,main
1578,1265,64,,correct,drum,label,Higher Degree/ Universitärer Abschluss,1595337542943,match,162,male/ männlich,drum,label_correct,y,deutsch,materials/images/drum_kit_1.jpg, ,materials/labels/drum_male.wav,Tue Jul 21 2020 15:00:03 GMT+0200 (Mitteleuropäische Sommerzeit),1595336403603,18.989,78,main
1578,1793,64,,correct,motorcycle,sound,Higher Degree/ Universitärer Abschluss,1595337542943,no match,162,male/ männlich,dog,sound_incorrect,n,deutsch,materials/images/dog_poodle_1.jpg, ,materials/sounds/motorcycle_small.wav,Tue Jul 21 2020 15:00:03 GMT+0200 (Mitteleuropäische Sommerzeit),1595336403603,18.989,79,main
1578,820,64,,correct,bird,label,Higher Degree/ Universitärer Abschluss,1595337542943,no match,162,male/ männlich,drum,label_incorrect,n,deutsch,materials/images/drum_bongo_2.jpg, ,materials/labels/bird_female.wav,Tue Jul 21 2020 15:00:03 GMT+0200 (Mitteleuropäische Sommerzeit),1595336403603,18.989,80,main
1578,888,64,,correct,drum,label,Higher Degree/ Universitärer Abschluss,1595337542943,no match,162,male/ männlich,dog,label_incorrect,n,deutsch,materials/images/dog_poodle_2.jpg, ,materials/labels/drum_male.wav,Tue Jul 21 2020 15:00:03 GMT+0200 (Mitteleuropäische Sommerzeit),1595336403603,18.989,81,main
1578,1066,64,,correct,guitar,label,Higher Degree/ Universitärer Abschluss,1595337542943,match,162,male/ männlich,guitar,label_correct,y,deutsch,materials/images/guitar_acoustic_1.jpg, ,materials/labels/guitar_male.wav,Tue Jul 21 2020 15:00:03 GMT+0200 (Mitteleuropäische Sommerzeit),1595336403603,18.989,82,main
1578,1782,64,,correct,motorcycle,label,Higher Degree/ Universitärer Abschluss,1595337542943,match,162,male/ männlich,motorcycle,label_correct,y,deutsch,materials/images/motorcycle_small_1.jpg, ,materials/labels/motorcycle_male.wav,Tue Jul 21 2020 15:00:03 GMT+0200 (Mitteleuropäische Sommerzeit),1595336403603,18.989,83,main
1578,815,64,,correct,motorcycle,label,Higher Degree/ Universitärer Abschluss,1595337542943,no match,162,male/ männlich,guitar,label_incorrect,n,deutsch,materials/images/guitar_acoustic_2.jpg, ,materials/labels/motorcycle_male.wav,Tue Jul 21 2020 15:00:03 GMT+0200 (Mitteleuropäische Sommerzeit),1595336403603,18.989,84,main
1578,2010,64,,correct,motorcycle,sound,Higher Degree/ Universitärer Abschluss,1595337542943,no match,162,male/ männlich,dog,sound_incorrect,n,deutsch,materials/images/dog_labmix_2.jpg, ,materials/sounds/motorcycle_small.wav,Tue Jul 21 2020 15:00:03 GMT+0200 (Mitteleuropäische Sommerzeit),1595336403603,18.989,85,main
1578,1185,64,,correct,bird,label,Higher Degree/ Universitärer Abschluss,1595337542943,match,162,male/ männlich,bird,label_correct,y,deutsch,materials/images/bird_sparrow_1.jpg, ,materials/labels/bird_female.wav,Tue Jul 21 2020 15:00:03 GMT+0200 (Mitteleuropäische Sommerzeit),1595336403603,18.989,86,main
1578,1104,64,,correct,motorcycle,sound,Higher Degree/ Universitärer Abschluss,1595337542943,match,162,male/ männlich,motorcycle,congruent,y,deutsch,materials/images/motorcycle_small_2.jpg, ,materials/sounds/motorcycle_small.wav,Tue Jul 21 2020 15:00:03 GMT+0200 (Mitteleuropäische Sommerzeit),1595336403603,18.989,87,main
1578,796,64,,correct,bird,sound,Higher Degree/ Universitärer Abschluss,1595337542943,no match,162,male/ männlich,dog,sound_incorrect,n,deutsch,materials/images/dog_labmix_2.jpg, ,materials/sounds/bird_sparrow.wav,Tue Jul 21 2020 15:00:03 GMT+0200 (Mitteleuropäische Sommerzeit),1595336403603,18.989,88,main
1578,1004,64,,correct,phone,label,Higher Degree/ Universitärer Abschluss,1595337542943,match,162,male/ männlich,phone,label_correct,y,deutsch,materials/images/phone_rotary_1.jpg, ,materials/labels/phone_female.wav,Tue Jul 21 2020 15:00:03 GMT+0200 (Mitteleuropäische Sommerzeit),1595336403603,18.989,89,main
1578,858,64,,correct,drum,sound,Higher Degree/ Universitärer Abschluss,1595337542943,no match,162,male/ männlich,dog,sound_incorrect,n,deutsch,materials/images/dog_poodle_2.jpg, ,materials/sounds/drum_bongo.wav,Tue Jul 21 2020 15:00:03 GMT+0200 (Mitteleuropäische Sommerzeit),1595336403603,18.989,90,main
1578,823,64,,correct,phone,label,Higher Degree/ Universitärer Abschluss,1595337542943,no match,162,male/ männlich,dog,label_incorrect,n,deutsch,materials/images/dog_labmix_2.jpg, ,materials/labels/phone_female.wav,Tue Jul 21 2020 15:00:03 GMT+0200 (Mitteleuropäische Sommerzeit),1595336403603,18.989,91,main
1578,1123,64,,correct,drum,sound,Higher Degree/ Universitärer Abschluss,1595337542943,no match,162,male/ männlich,motorcycle,sound_incorrect,n,deutsch,materials/images/motorcycle_small_2.jpg, ,materials/sounds/drum_bongo.wav,Tue Jul 21 2020 15:00:03 GMT+0200 (Mitteleuropäische Sommerzeit),1595336403603,18.989,92,main
1578,935,64,,correct,bird,label,Higher Degree/ Universitärer Abschluss,1595337542943,match,162,male/ männlich,bird,label_correct,y,deutsch,materials/images/bird_sparrow_2.jpg, ,materials/labels/bird_female.wav,Tue Jul 21 2020 15:00:03 GMT+0200 (Mitteleuropäische Sommerzeit),1595336403603,18.989,93,main
1578,786,64,,correct,bird,label,Higher Degree/ Universitärer Abschluss,1595337542943,match,162,male/ männlich,bird,label_correct,y,deutsch,materials/images/bird_sparrow_2.jpg, ,materials/labels/bird_male.wav,Tue Jul 21 2020 15:00:03 GMT+0200 (Mitteleuropäische Sommerzeit),1595336403603,18.989,94,main
1578,681,64,,correct,bird,sound,Higher Degree/ Universitärer Abschluss,1595337542943,match,162,male/ männlich,bird,congruent,y,deutsch,materials/images/bird_sparrow_1.jpg, ,materials/sounds/bird_sparrow.wav,Tue Jul 21 2020 15:00:03 GMT+0200 (Mitteleuropäische Sommerzeit),1595336403603,18.989,95,main
1578,1301,64,,correct,motorcycle,sound,Higher Degree/ Universitärer Abschluss,1595337542943,no match,162,male/ männlich,phone,sound_incorrect,n,deutsch,materials/images/phone_rotary_1.jpg, ,materials/sounds/motorcycle_big.wav,Tue Jul 21 2020 15:00:03 GMT+0200 (Mitteleuropäische Sommerzeit),1595336403603,18.989,96,main
1578,1011,64,,correct,phone,sound,Higher Degree/ Universitärer Abschluss,1595337542943,match,162,male/ männlich,phone,congruent,y,deutsch,materials/images/phone_cell_1.jpg, ,materials/sounds/phone_cell.wav,Tue Jul 21 2020 15:00:03 GMT+0200 (Mitteleuropäische Sommerzeit),1595336403603,18.989,97,main
1578,994,64,,correct,phone,label,Higher Degree/ Universitärer Abschluss,1595337542943,match,162,male/ männlich,phone,label_correct,y,deutsch,materials/images/phone_rotary_2.jpg, ,materials/labels/phone_male.wav,Tue Jul 21 2020 15:00:03 GMT+0200 (Mitteleuropäische Sommerzeit),1595336403603,18.989,98,main
1578,1474,64,,correct,phone,label,Higher Degree/ Universitärer Abschluss,1595337542943,no match,162,male/ männlich,motorcycle,label_incorrect,n,deutsch,materials/images/motorcycle_small_1.jpg, ,materials/labels/phone_female.wav,Tue Jul 21 2020 15:00:03 GMT+0200 (Mitteleuropäische Sommerzeit),1595336403603,18.989,99,main
1578,923,64,,correct,drum,sound,Higher Degree/ Universitärer Abschluss,1595337542943,match,162,male/ männlich,drum,incongruent,y,deutsch,materials/images/drum_kit_2.jpg, ,materials/sounds/drum_bongo.wav,Tue Jul 21 2020 15:00:03 GMT+0200 (Mitteleuropäische Sommerzeit),1595336403603,18.989,100,main
1578,1034,64,,correct,dog,label,Higher Degree/ Universitärer Abschluss,1595337542943,no match,162,male/ männlich,motorcycle,label_incorrect,n,deutsch,materials/images/motorcycle_big_1.jpg, ,materials/labels/dog_female.wav,Tue Jul 21 2020 15:00:03 GMT+0200 (Mitteleuropäische Sommerzeit),1595336403603,18.989,101,main
1578,1071,64,,correct,dog,label,Higher Degree/ Universitärer Abschluss,1595337542943,match,162,male/ männlich,dog,label_correct,y,deutsch,materials/images/dog_poodle_2.jpg, ,materials/labels/dog_female.wav,Tue Jul 21 2020 15:00:03 GMT+0200 (Mitteleuropäische Sommerzeit),1595336403603,18.989,102,main
1578,1011,64,,correct,motorcycle,sound,Higher Degree/ Universitärer Abschluss,1595337542943,no match,162,male/ männlich,guitar,sound_incorrect,n,deutsch,materials/images/guitar_acoustic_2.jpg, ,materials/sounds/motorcycle_big.wav,Tue Jul 21 2020 15:00:03 GMT+0200 (Mitteleuropäische Sommerzeit),1595336403603,18.989,103,main
1578,1416,64,,incorrect,dog,label,Higher Degree/ Universitärer Abschluss,1595337542943,no match,162,male/ männlich,phone,label_incorrect,y,deutsch,materials/images/phone_rotary_2.jpg, ,materials/labels/dog_female.wav,Tue Jul 21 2020 15:00:03 GMT+0200 (Mitteleuropäische Sommerzeit),1595336403603,18.989,104,main
1578,1865,64,,correct,motorcycle,sound,Higher Degree/ Universitärer Abschluss,1595337542943,no match,162,male/ männlich,bird,sound_incorrect,n,deutsch,materials/images/bird_owl_1.jpg, ,materials/sounds/motorcycle_small.wav,Tue Jul 21 2020 15:00:03 GMT+0200 (Mitteleuropäische Sommerzeit),1595336403603,18.989,105,main
1578,1439,64,,correct,dog,sound,Higher Degree/ Universitärer Abschluss,1595337542943,match,162,male/ männlich,dog,incongruent,y,deutsch,materials/images/dog_poodle_1.jpg, ,materials/sounds/dog_labmix.wav,Tue Jul 21 2020 15:00:03 GMT+0200 (Mitteleuropäische Sommerzeit),1595336403603,18.989,106,main
1578,1517,64,,correct,motorcycle,sound,Higher Degree/ Universitärer Abschluss,1595337542943,no match,162,male/ männlich,guitar,sound_incorrect,n,deutsch,materials/images/guitar_acoustic_1.jpg, ,materials/sounds/motorcycle_big.wav,Tue Jul 21 2020 15:00:03 GMT+0200 (Mitteleuropäische Sommerzeit),1595336403603,18.989,107,main
1578,1123,64,,correct,bird,sound,Higher Degree/ Universitärer Abschluss,1595337542943,no match,162,male/ männlich,motorcycle,sound_incorrect,n,deutsch,materials/images/motorcycle_big_2.jpg, ,materials/sounds/bird_sparrow.wav,Tue Jul 21 2020 15:00:03 GMT+0200 (Mitteleuropäische Sommerzeit),1595336403603,18.989,108,main
1578,925,64,,correct,bird,label,Higher Degree/ Universitärer Abschluss,1595337542943,no match,162,male/ männlich,guitar,label_incorrect,n,deutsch,materials/images/guitar_acoustic_2.jpg, ,materials/labels/bird_female.wav,Tue Jul 21 2020 15:00:03 GMT+0200 (Mitteleuropäische Sommerzeit),1595336403603,18.989,109,main
1578,1062,64,,correct,bird,sound,Higher Degree/ Universitärer Abschluss,1595337542943,match,162,male/ männlich,bird,incongruent,y,deutsch,materials/images/bird_owl_1.jpg, ,materials/sounds/bird_sparrow.wav,Tue Jul 21 2020 15:00:03 GMT+0200 (Mitteleuropäische Sommerzeit),1595336403603,18.989,110,main
1578,971,64,,correct,phone,label,Higher Degree/ Universitärer Abschluss,1595337542943,no match,162,male/ männlich,dog,label_incorrect,n,deutsch,materials/images/dog_poodle_2.jpg, ,materials/labels/phone_female.wav,Tue Jul 21 2020 15:00:03 GMT+0200 (Mitteleuropäische Sommerzeit),1595336403603,18.989,111,main
1578,1497,64,,correct,drum,sound,Higher Degree/ Universitärer Abschluss,1595337542943,match,162,male/ männlich,drum,incongruent,y,deutsch,materials/images/drum_bongo_1.jpg, ,materials/sounds/drum_kit.wav,Tue Jul 21 2020 15:00:03 GMT+0200 (Mitteleuropäische Sommerzeit),1595336403603,18.989,112,main
1578,877,64,,correct,motorcycle,label,Higher Degree/ Universitärer Abschluss,1595337542943,match,162,male/ männlich,motorcycle,label_correct,y,deutsch,materials/images/motorcycle_big_1.jpg, ,materials/labels/motorcycle_female.wav,Tue Jul 21 2020 15:00:03 GMT+0200 (Mitteleuropäische Sommerzeit),1595336403603,18.989,113,main
1578,909,64,,correct,phone,label,Higher Degree/ Universitärer Abschluss,1595337542943,no match,162,male/ männlich,guitar,label_incorrect,n,deutsch,materials/images/guitar_electric_1.jpg, ,materials/labels/phone_female.wav,Tue Jul 21 2020 15:00:03 GMT+0200 (Mitteleuropäische Sommerzeit),1595336403603,18.989,114,main
1578,1133,64,,correct,guitar,sound,Higher Degree/ Universitärer Abschluss,1595337542943,match,162,male/ männlich,guitar,incongruent,y,deutsch,materials/images/guitar_electric_1.jpg, ,materials/sounds/guitar_acoustic.wav,Tue Jul 21 2020 15:00:03 GMT+0200 (Mitteleuropäische Sommerzeit),1595336403603,18.989,115,main
1578,1238,64,,correct,dog,sound,Higher Degree/ Universitärer Abschluss,1595337542943,match,162,male/ männlich,dog,congruent,y,deutsch,materials/images/dog_labmix_1.jpg, ,materials/sounds/dog_labmix.wav,Tue Jul 21 2020 15:00:03 GMT+0200 (Mitteleuropäische Sommerzeit),1595336403603,18.989,116,main
1578,742,64,,correct,dog,label,Higher Degree/ Universitärer Abschluss,1595337542943,match,162,male/ männlich,dog,label_correct,y,deutsch,materials/images/dog_labmix_1.jpg, ,materials/labels/dog_male.wav,Tue Jul 21 2020 15:00:03 GMT+0200 (Mitteleuropäische Sommerzeit),1595336403603,18.989,117,main
1578,1716,64,,correct,motorcycle,sound,Higher Degree/ Universitärer Abschluss,1595337542943,no match,162,male/ männlich,drum,sound_incorrect,n,deutsch,materials/images/drum_kit_2.jpg, ,materials/sounds/motorcycle_small.wav,Tue Jul 21 2020 15:00:03 GMT+0200 (Mitteleuropäische Sommerzeit),1595336403603,18.989,118,main
1578,940,64,,correct,motorcycle,label,Higher Degree/ Universitärer Abschluss,1595337542943,match,162,male/ männlich,motorcycle,label_correct,y,deutsch,materials/images/motorcycle_small_2.jpg, ,materials/labels/motorcycle_female.wav,Tue Jul 21 2020 15:00:03 GMT+0200 (Mitteleuropäische Sommerzeit),1595336403603,18.989,119,main
1578,933,64,,correct,dog,sound,Higher Degree/ Universitärer Abschluss,1595337542943,match,162,male/ männlich,dog,incongruent,y,deutsch,materials/images/dog_labmix_2.jpg, ,materials/sounds/dog_poodle.wav,Tue Jul 21 2020 15:00:03 GMT+0200 (Mitteleuropäische Sommerzeit),1595336403603,18.989,120,main
1578,635,64,,correct,bird,label,Higher Degree/ Universitärer Abschluss,1595337542943,no match,162,male/ männlich,guitar,label_incorrect,n,deutsch,materials/images/guitar_electric_1.jpg, ,materials/labels/bird_male.wav,Tue Jul 21 2020 15:00:03 GMT+0200 (Mitteleuropäische Sommerzeit),1595336403603,18.989,121,main
1578,1026,64,,correct,dog,label,Higher Degree/ Universitärer Abschluss,1595337542943,match,162,male/ männlich,dog,label_correct,y,deutsch,materials/images/dog_poodle_2.jpg, ,materials/labels/dog_male.wav,Tue Jul 21 2020 15:00:03 GMT+0200 (Mitteleuropäische Sommerzeit),1595336403603,18.989,122,main
1578,632,64,,correct,motorcycle,sound,Higher Degree/ Universitärer Abschluss,1595337542943,match,162,male/ männlich,motorcycle,congruent,y,deutsch,materials/images/motorcycle_big_2.jpg, ,materials/sounds/motorcycle_big.wav,Tue Jul 21 2020 15:00:03 GMT+0200 (Mitteleuropäische Sommerzeit),1595336403603,18.989,123,main
1578,1007,64,,correct,dog,label,Higher Degree/ Universitärer Abschluss,1595337542943,no match,162,male/ männlich,motorcycle,label_incorrect,n,deutsch,materials/images/motorcycle_big_2.jpg, ,materials/labels/dog_female.wav,Tue Jul 21 2020 15:00:03 GMT+0200 (Mitteleuropäische Sommerzeit),1595336403603,18.989,124,main
1578,1380,64,,correct,bird,label,Higher Degree/ Universitärer Abschluss,1595337542943,match,162,male/ männlich,bird,label_correct,y,deutsch,materials/images/bird_owl_1.jpg, ,materials/labels/bird_female.wav,Tue Jul 21 2020 15:00:03 GMT+0200 (Mitteleuropäische Sommerzeit),1595336403603,18.989,125,main
1578,742,64,,correct,phone,sound,Higher Degree/ Universitärer Abschluss,1595337542943,match,162,male/ männlich,phone,incongruent,y,deutsch,materials/images/phone_rotary_2.jpg, ,materials/sounds/phone_cell.wav,Tue Jul 21 2020 15:00:03 GMT+0200 (Mitteleuropäische Sommerzeit),1595336403603,18.989,126,main
1578,1214,64,,correct,drum,label,Higher Degree/ Universitärer Abschluss,1595337542943,no match,162,male/ männlich,phone,label_incorrect,n,deutsch,materials/images/phone_rotary_2.jpg, ,materials/labels/drum_male.wav,Tue Jul 21 2020 15:00:03 GMT+0200 (Mitteleuropäische Sommerzeit),1595336403603,18.989,127,main
1578,1035,64,,correct,bird,label,Higher Degree/ Universitärer Abschluss,1595337542943,no match,162,male/ männlich,drum,label_incorrect,n,deutsch,materials/images/drum_bongo_1.jpg, ,materials/labels/bird_male.wav,Tue Jul 21 2020 15:00:03 GMT+0200 (Mitteleuropäische Sommerzeit),1595336403603,18.989,128,main
1578,822,64,,correct,bird,label,Higher Degree/ Universitärer Abschluss,1595337542943,no match,162,male/ männlich,drum,label_incorrect,n,deutsch,materials/images/drum_kit_1.jpg, ,materials/labels/bird_female.wav,Tue Jul 21 2020 15:00:03 GMT+0200 (Mitteleuropäische Sommerzeit),1595336403603,18.989,129,main
1578,793,64,,correct,motorcycle,sound,Higher Degree/ Universitärer Abschluss,1595337542943,no match,162,male/ männlich,drum,sound_incorrect,n,deutsch,materials/images/drum_bongo_1.jpg, ,materials/sounds/motorcycle_small.wav,Tue Jul 21 2020 15:00:03 GMT+0200 (Mitteleuropäische Sommerzeit),1595336403603,18.989,130,main
1578,1028,64,,correct,drum,label,Higher Degree/ Universitärer Abschluss,1595337542943,no match,162,male/ männlich,motorcycle,label_incorrect,n,deutsch,materials/images/motorcycle_big_2.jpg, ,materials/labels/drum_male.wav,Tue Jul 21 2020 15:00:03 GMT+0200 (Mitteleuropäische Sommerzeit),1595336403603,18.989,131,main
1578,1273,64,,correct,drum,label,Higher Degree/ Universitärer Abschluss,1595337542943,no match,162,male/ männlich,guitar,label_incorrect,n,deutsch,materials/images/guitar_acoustic_2.jpg, ,materials/labels/drum_male.wav,Tue Jul 21 2020 15:00:03 GMT+0200 (Mitteleuropäische Sommerzeit),1595336403603,18.989,132,main
1578,1039,64,,correct,phone,sound,Higher Degree/ Universitärer Abschluss,1595337542943,match,162,male/ männlich,phone,congruent,y,deutsch,materials/images/phone_cell_2.jpg, ,materials/sounds/phone_cell.wav,Tue Jul 21 2020 15:00:03 GMT+0200 (Mitteleuropäische Sommerzeit),1595336403603,18.989,133,main
1578,740,64,,correct,drum,sound,Higher Degree/ Universitärer Abschluss,1595337542943,match,162,male/ männlich,drum,congruent,y,deutsch,materials/images/drum_kit_2.jpg, ,materials/sounds/drum_kit.wav,Tue Jul 21 2020 15:00:03 GMT+0200 (Mitteleuropäische Sommerzeit),1595336403603,18.989,134,main
1578,642,64,,correct,phone,label,Higher Degree/ Universitärer Abschluss,1595337542943,match,162,male/ männlich,phone,label_correct,y,deutsch,materials/images/phone_cell_2.jpg, ,materials/labels/phone_female.wav,Tue Jul 21 2020 15:00:03 GMT+0200 (Mitteleuropäische Sommerzeit),1595336403603,18.989,135,main
1578,1001,64,,correct,motorcycle,sound,Higher Degree/ Universitärer Abschluss,1595337542943,no match,162,male/ männlich,phone,sound_incorrect,n,deutsch,materials/images/phone_cell_1.jpg, ,materials/sounds/motorcycle_big.wav,Tue Jul 21 2020 15:00:03 GMT+0200 (Mitteleuropäische Sommerzeit),1595336403603,18.989,136,main
1578,757,64,,correct,motorcycle,label,Higher Degree/ Universitärer Abschluss,1595337542943,match,162,male/ männlich,motorcycle,label_correct,y,deutsch,materials/images/motorcycle_big_1.jpg, ,materials/labels/motorcycle_male.wav,Tue Jul 21 2020 15:00:03 GMT+0200 (Mitteleuropäische Sommerzeit),1595336403603,18.989,137,main
1578,933,64,,correct,bird,sound,Higher Degree/ Universitärer Abschluss,1595337542943,no match,162,male/ männlich,motorcycle,sound_incorrect,n,deutsch,materials/images/motorcycle_big_1.jpg, ,materials/sounds/bird_sparrow.wav,Tue Jul 21 2020 15:00:03 GMT+0200 (Mitteleuropäische Sommerzeit),1595336403603,18.989,138,main
1578,1100,64,,correct,motorcycle,sound,Higher Degree/ Universitärer Abschluss,1595337542943,no match,162,male/ männlich,phone,sound_incorrect,n,deutsch,materials/images/phone_rotary_2.jpg, ,materials/sounds/motorcycle_big.wav,Tue Jul 21 2020 15:00:03 GMT+0200 (Mitteleuropäische Sommerzeit),1595336403603,18.989,139,main
