submission_id,RT,age,comments,correctness,cue_category,cue_type,education,endTime,expected,experiment_id,gender,image_category,info,key_pressed,languages,picture,question,sound,startDate,startTime,timeSpent,trial_number,trial_type;
1974,3957,22,,correct,bird,sound,Graduated High School/ Abitur,1595963463030,match,162,female/ weiblich,bird,congruent,y,deutsch,materials/images/bird_owl_1.jpg, ,materials/sounds/bird_owl.wav,Tue Jul 28 2020 20:50:24 GMT+0200 (Mitteleuropäische Sommerzeit),1595962224719,20.638516666666668,1,practice;
1974,1970,22,,correct,bird,label,Graduated High School/ Abitur,1595963463030,no match,162,female/ weiblich,phone,label_incorrect,n,deutsch,materials/images/phone_cell_1.jpg, ,materials/labels/bird_male.wav,Tue Jul 28 2020 20:50:24 GMT+0200 (Mitteleuropäische Sommerzeit),1595962224719,20.638516666666668,2,practice;
1974,1222,22,,correct,bird,label,Graduated High School/ Abitur,1595963463030,no match,162,female/ weiblich,motorcycle,label_incorrect,n,deutsch,materials/images/motorcycle_small_2.jpg, ,materials/labels/bird_female.wav,Tue Jul 28 2020 20:50:24 GMT+0200 (Mitteleuropäische Sommerzeit),1595962224719,20.638516666666668,3,practice;
1974,1664,22,,correct,bird,label,Graduated High School/ Abitur,1595963463030,match,162,female/ weiblich,bird,label_correct,y,deutsch,materials/images/bird_owl_1.jpg, ,materials/labels/bird_female.wav,Tue Jul 28 2020 20:50:24 GMT+0200 (Mitteleuropäische Sommerzeit),1595962224719,20.638516666666668,4,practice;
1974,1851,22,,correct,bird,sound,Graduated High School/ Abitur,1595963463030,match,162,female/ weiblich,bird,incongruent,y,deutsch,materials/images/bird_sparrow_1.jpg, ,materials/sounds/bird_owl.wav,Tue Jul 28 2020 20:50:24 GMT+0200 (Mitteleuropäische Sommerzeit),1595962224719,20.638516666666668,5,practice;
1974,1128,22,,correct,bird,sound,Graduated High School/ Abitur,1595963463030,no match,162,female/ weiblich,motorcycle,sound_incorrect,n,deutsch,materials/images/motorcycle_big_2.jpg, ,materials/sounds/bird_sparrow.wav,Tue Jul 28 2020 20:50:24 GMT+0200 (Mitteleuropäische Sommerzeit),1595962224719,20.638516666666668,6,practice;
1974,1043,22,,correct,bird,label,Graduated High School/ Abitur,1595963463030,no match,162,female/ weiblich,phone,label_incorrect,n,deutsch,materials/images/phone_cell_2.jpg, ,materials/labels/bird_male.wav,Tue Jul 28 2020 20:50:24 GMT+0200 (Mitteleuropäische Sommerzeit),1595962224719,20.638516666666668,1,main;
1974,822,22,,correct,drum,label,Graduated High School/ Abitur,1595963463030,match,162,female/ weiblich,drum,label_correct,y,deutsch,materials/images/drum_kit_2.jpg, ,materials/labels/drum_male.wav,Tue Jul 28 2020 20:50:24 GMT+0200 (Mitteleuropäische Sommerzeit),1595962224719,20.638516666666668,2,main;
1974,658,22,,correct,bird,label,Graduated High School/ Abitur,1595963463030,no match,162,female/ weiblich,phone,label_incorrect,n,deutsch,materials/images/phone_rotary_1.jpg, ,materials/labels/bird_female.wav,Tue Jul 28 2020 20:50:24 GMT+0200 (Mitteleuropäische Sommerzeit),1595962224719,20.638516666666668,3,main;
1974,685,22,,correct,motorcycle,label,Graduated High School/ Abitur,1595963463030,match,162,female/ weiblich,motorcycle,label_correct,y,deutsch,materials/images/motorcycle_small_1.jpg, ,materials/labels/motorcycle_male.wav,Tue Jul 28 2020 20:50:24 GMT+0200 (Mitteleuropäische Sommerzeit),1595962224719,20.638516666666668,4,main;
1974,566,22,,correct,bird,sound,Graduated High School/ Abitur,1595963463030,no match,162,female/ weiblich,motorcycle,sound_incorrect,n,deutsch,materials/images/motorcycle_big_1.jpg, ,materials/sounds/bird_sparrow.wav,Tue Jul 28 2020 20:50:24 GMT+0200 (Mitteleuropäische Sommerzeit),1595962224719,20.638516666666668,5,main;
1974,646,22,,correct,guitar,label,Graduated High School/ Abitur,1595963463030,match,162,female/ weiblich,guitar,label_correct,y,deutsch,materials/images/guitar_acoustic_1.jpg, ,materials/labels/guitar_male.wav,Tue Jul 28 2020 20:50:24 GMT+0200 (Mitteleuropäische Sommerzeit),1595962224719,20.638516666666668,6,main;
1974,661,22,,correct,phone,sound,Graduated High School/ Abitur,1595963463030,no match,162,female/ weiblich,motorcycle,sound_incorrect,n,deutsch,materials/images/motorcycle_small_2.jpg, ,materials/sounds/phone_rotary.wav,Tue Jul 28 2020 20:50:24 GMT+0200 (Mitteleuropäische Sommerzeit),1595962224719,20.638516666666668,7,main;
1974,972,22,,correct,dog,sound,Graduated High School/ Abitur,1595963463030,no match,162,female/ weiblich,bird,sound_incorrect,n,deutsch,materials/images/bird_owl_1.jpg, ,materials/sounds/dog_poodle.wav,Tue Jul 28 2020 20:50:24 GMT+0200 (Mitteleuropäische Sommerzeit),1595962224719,20.638516666666668,8,main;
1974,669,22,,correct,drum,sound,Graduated High School/ Abitur,1595963463030,match,162,female/ weiblich,drum,congruent,y,deutsch,materials/images/drum_bongo_1.jpg, ,materials/sounds/drum_bongo.wav,Tue Jul 28 2020 20:50:24 GMT+0200 (Mitteleuropäische Sommerzeit),1595962224719,20.638516666666668,9,main;
1974,516,22,,incorrect,motorcycle,label,Graduated High School/ Abitur,1595963463030,no match,162,female/ weiblich,bird,label_incorrect,y,deutsch,materials/images/bird_owl_2.jpg, ,materials/labels/motorcycle_female.wav,Tue Jul 28 2020 20:50:24 GMT+0200 (Mitteleuropäische Sommerzeit),1595962224719,20.638516666666668,10,main;
1974,932,22,,correct,drum,sound,Graduated High School/ Abitur,1595963463030,no match,162,female/ weiblich,guitar,sound_incorrect,n,deutsch,materials/images/guitar_acoustic_2.jpg, ,materials/sounds/drum_bongo.wav,Tue Jul 28 2020 20:50:24 GMT+0200 (Mitteleuropäische Sommerzeit),1595962224719,20.638516666666668,11,main;
1974,579,22,,correct,bird,label,Graduated High School/ Abitur,1595963463030,match,162,female/ weiblich,bird,label_correct,y,deutsch,materials/images/bird_sparrow_2.jpg, ,materials/labels/bird_male.wav,Tue Jul 28 2020 20:50:24 GMT+0200 (Mitteleuropäische Sommerzeit),1595962224719,20.638516666666668,12,main;
1974,579,22,,correct,motorcycle,sound,Graduated High School/ Abitur,1595963463030,no match,162,female/ weiblich,guitar,sound_incorrect,n,deutsch,materials/images/guitar_acoustic_1.jpg, ,materials/sounds/motorcycle_small.wav,Tue Jul 28 2020 20:50:24 GMT+0200 (Mitteleuropäische Sommerzeit),1595962224719,20.638516666666668,13,main;
1974,616,22,,correct,drum,label,Graduated High School/ Abitur,1595963463030,no match,162,female/ weiblich,phone,label_incorrect,n,deutsch,materials/images/phone_rotary_1.jpg, ,materials/labels/drum_female.wav,Tue Jul 28 2020 20:50:24 GMT+0200 (Mitteleuropäische Sommerzeit),1595962224719,20.638516666666668,14,main;
1974,531,22,,correct,phone,label,Graduated High School/ Abitur,1595963463030,match,162,female/ weiblich,phone,label_correct,y,deutsch,materials/images/phone_rotary_2.jpg, ,materials/labels/phone_female.wav,Tue Jul 28 2020 20:50:24 GMT+0200 (Mitteleuropäische Sommerzeit),1595962224719,20.638516666666668,15,main;
1974,557,22,,correct,bird,sound,Graduated High School/ Abitur,1595963463030,no match,162,female/ weiblich,motorcycle,sound_incorrect,n,deutsch,materials/images/motorcycle_big_2.jpg, ,materials/sounds/bird_sparrow.wav,Tue Jul 28 2020 20:50:24 GMT+0200 (Mitteleuropäische Sommerzeit),1595962224719,20.638516666666668,16,main;
1974,809,22,,correct,motorcycle,sound,Graduated High School/ Abitur,1595963463030,no match,162,female/ weiblich,guitar,sound_incorrect,n,deutsch,materials/images/guitar_acoustic_2.jpg, ,materials/sounds/motorcycle_big.wav,Tue Jul 28 2020 20:50:24 GMT+0200 (Mitteleuropäische Sommerzeit),1595962224719,20.638516666666668,17,main;
1974,623,22,,correct,phone,label,Graduated High School/ Abitur,1595963463030,match,162,female/ weiblich,phone,label_correct,y,deutsch,materials/images/phone_cell_2.jpg, ,materials/labels/phone_female.wav,Tue Jul 28 2020 20:50:24 GMT+0200 (Mitteleuropäische Sommerzeit),1595962224719,20.638516666666668,18,main;
1974,902,22,,correct,drum,sound,Graduated High School/ Abitur,1595963463030,no match,162,female/ weiblich,bird,sound_incorrect,n,deutsch,materials/images/bird_sparrow_2.jpg, ,materials/sounds/drum_kit.wav,Tue Jul 28 2020 20:50:24 GMT+0200 (Mitteleuropäische Sommerzeit),1595962224719,20.638516666666668,19,main;
1974,560,22,,correct,drum,label,Graduated High School/ Abitur,1595963463030,no match,162,female/ weiblich,bird,label_incorrect,n,deutsch,materials/images/bird_sparrow_1.jpg, ,materials/labels/drum_male.wav,Tue Jul 28 2020 20:50:24 GMT+0200 (Mitteleuropäische Sommerzeit),1595962224719,20.638516666666668,20,main;
1974,595,22,,correct,motorcycle,label,Graduated High School/ Abitur,1595963463030,no match,162,female/ weiblich,drum,label_incorrect,n,deutsch,materials/images/drum_kit_2.jpg, ,materials/labels/motorcycle_male.wav,Tue Jul 28 2020 20:50:24 GMT+0200 (Mitteleuropäische Sommerzeit),1595962224719,20.638516666666668,21,main;
1974,583,22,,correct,phone,label,Graduated High School/ Abitur,1595963463030,match,162,female/ weiblich,phone,label_correct,y,deutsch,materials/images/phone_cell_2.jpg, ,materials/labels/phone_male.wav,Tue Jul 28 2020 20:50:24 GMT+0200 (Mitteleuropäische Sommerzeit),1595962224719,20.638516666666668,22,main;
1974,515,22,,correct,bird,label,Graduated High School/ Abitur,1595963463030,no match,162,female/ weiblich,drum,label_incorrect,n,deutsch,materials/images/drum_bongo_2.jpg, ,materials/labels/bird_female.wav,Tue Jul 28 2020 20:50:24 GMT+0200 (Mitteleuropäische Sommerzeit),1595962224719,20.638516666666668,23,main;
1974,476,22,,correct,bird,sound,Graduated High School/ Abitur,1595963463030,no match,162,female/ weiblich,drum,sound_incorrect,n,deutsch,materials/images/drum_bongo_2.jpg, ,materials/sounds/bird_sparrow.wav,Tue Jul 28 2020 20:50:24 GMT+0200 (Mitteleuropäische Sommerzeit),1595962224719,20.638516666666668,24,main;
1974,516,22,,correct,drum,label,Graduated High School/ Abitur,1595963463030,no match,162,female/ weiblich,dog,label_incorrect,n,deutsch,materials/images/dog_labmix_1.jpg, ,materials/labels/drum_female.wav,Tue Jul 28 2020 20:50:24 GMT+0200 (Mitteleuropäische Sommerzeit),1595962224719,20.638516666666668,25,main;
1974,495,22,,correct,drum,sound,Graduated High School/ Abitur,1595963463030,no match,162,female/ weiblich,phone,sound_incorrect,n,deutsch,materials/images/phone_rotary_2.jpg, ,materials/sounds/drum_kit.wav,Tue Jul 28 2020 20:50:24 GMT+0200 (Mitteleuropäische Sommerzeit),1595962224719,20.638516666666668,26,main;
1974,479,22,,correct,motorcycle,sound,Graduated High School/ Abitur,1595963463030,no match,162,female/ weiblich,dog,sound_incorrect,n,deutsch,materials/images/dog_labmix_1.jpg, ,materials/sounds/motorcycle_small.wav,Tue Jul 28 2020 20:50:24 GMT+0200 (Mitteleuropäische Sommerzeit),1595962224719,20.638516666666668,27,main;
1974,584,22,,correct,guitar,sound,Graduated High School/ Abitur,1595963463030,match,162,female/ weiblich,guitar,incongruent,y,deutsch,materials/images/guitar_electric_1.jpg, ,materials/sounds/guitar_acoustic.wav,Tue Jul 28 2020 20:50:24 GMT+0200 (Mitteleuropäische Sommerzeit),1595962224719,20.638516666666668,28,main;
1974,464,22,,incorrect,bird,sound,Graduated High School/ Abitur,1595963463030,match,162,female/ weiblich,bird,incongruent,n,deutsch,materials/images/bird_owl_2.jpg, ,materials/sounds/bird_sparrow.wav,Tue Jul 28 2020 20:50:24 GMT+0200 (Mitteleuropäische Sommerzeit),1595962224719,20.638516666666668,29,main;
1974,510,22,,correct,drum,label,Graduated High School/ Abitur,1595963463030,match,162,female/ weiblich,drum,label_correct,y,deutsch,materials/images/drum_bongo_2.jpg, ,materials/labels/drum_male.wav,Tue Jul 28 2020 20:50:24 GMT+0200 (Mitteleuropäische Sommerzeit),1595962224719,20.638516666666668,30,main;
1974,515,22,,correct,bird,label,Graduated High School/ Abitur,1595963463030,match,162,female/ weiblich,bird,label_correct,y,deutsch,materials/images/bird_owl_1.jpg, ,materials/labels/bird_male.wav,Tue Jul 28 2020 20:50:24 GMT+0200 (Mitteleuropäische Sommerzeit),1595962224719,20.638516666666668,31,main;
1974,726,22,,correct,motorcycle,label,Graduated High School/ Abitur,1595963463030,no match,162,female/ weiblich,phone,label_incorrect,n,deutsch,materials/images/phone_cell_2.jpg, ,materials/labels/motorcycle_female.wav,Tue Jul 28 2020 20:50:24 GMT+0200 (Mitteleuropäische Sommerzeit),1595962224719,20.638516666666668,32,main;
1974,838,22,,correct,motorcycle,sound,Graduated High School/ Abitur,1595963463030,no match,162,female/ weiblich,phone,sound_incorrect,n,deutsch,materials/images/phone_cell_2.jpg, ,materials/sounds/motorcycle_big.wav,Tue Jul 28 2020 20:50:24 GMT+0200 (Mitteleuropäische Sommerzeit),1595962224719,20.638516666666668,33,main;
1974,608,22,,correct,drum,label,Graduated High School/ Abitur,1595963463030,match,162,female/ weiblich,drum,label_correct,y,deutsch,materials/images/drum_kit_1.jpg, ,materials/labels/drum_male.wav,Tue Jul 28 2020 20:50:24 GMT+0200 (Mitteleuropäische Sommerzeit),1595962224719,20.638516666666668,34,main;
1974,520,22,,correct,bird,sound,Graduated High School/ Abitur,1595963463030,no match,162,female/ weiblich,phone,sound_incorrect,n,deutsch,materials/images/phone_rotary_1.jpg, ,materials/sounds/bird_sparrow.wav,Tue Jul 28 2020 20:50:24 GMT+0200 (Mitteleuropäische Sommerzeit),1595962224719,20.638516666666668,35,main;
1974,662,22,,correct,drum,label,Graduated High School/ Abitur,1595963463030,no match,162,female/ weiblich,phone,label_incorrect,n,deutsch,materials/images/phone_cell_1.jpg, ,materials/labels/drum_male.wav,Tue Jul 28 2020 20:50:24 GMT+0200 (Mitteleuropäische Sommerzeit),1595962224719,20.638516666666668,36,main;
1974,731,22,,correct,phone,sound,Graduated High School/ Abitur,1595963463030,match,162,female/ weiblich,phone,incongruent,y,deutsch,materials/images/phone_cell_1.jpg, ,materials/sounds/phone_rotary.wav,Tue Jul 28 2020 20:50:24 GMT+0200 (Mitteleuropäische Sommerzeit),1595962224719,20.638516666666668,37,main;
1974,604,22,,correct,motorcycle,label,Graduated High School/ Abitur,1595963463030,no match,162,female/ weiblich,phone,label_incorrect,n,deutsch,materials/images/phone_cell_1.jpg, ,materials/labels/motorcycle_male.wav,Tue Jul 28 2020 20:50:24 GMT+0200 (Mitteleuropäische Sommerzeit),1595962224719,20.638516666666668,38,main;
1974,509,22,,correct,bird,label,Graduated High School/ Abitur,1595963463030,match,162,female/ weiblich,bird,label_correct,y,deutsch,materials/images/bird_sparrow_1.jpg, ,materials/labels/bird_female.wav,Tue Jul 28 2020 20:50:24 GMT+0200 (Mitteleuropäische Sommerzeit),1595962224719,20.638516666666668,39,main;
1974,593,22,,correct,guitar,sound,Graduated High School/ Abitur,1595963463030,match,162,female/ weiblich,guitar,congruent,y,deutsch,materials/images/guitar_electric_2.jpg, ,materials/sounds/guitar_electric.wav,Tue Jul 28 2020 20:50:24 GMT+0200 (Mitteleuropäische Sommerzeit),1595962224719,20.638516666666668,40,main;
1974,601,22,,correct,guitar,sound,Graduated High School/ Abitur,1595963463030,match,162,female/ weiblich,guitar,incongruent,y,deutsch,materials/images/guitar_acoustic_1.jpg, ,materials/sounds/guitar_electric.wav,Tue Jul 28 2020 20:50:24 GMT+0200 (Mitteleuropäische Sommerzeit),1595962224719,20.638516666666668,41,main;
1974,493,22,,correct,motorcycle,label,Graduated High School/ Abitur,1595963463030,no match,162,female/ weiblich,bird,label_incorrect,n,deutsch,materials/images/bird_owl_2.jpg, ,materials/labels/motorcycle_male.wav,Tue Jul 28 2020 20:50:24 GMT+0200 (Mitteleuropäische Sommerzeit),1595962224719,20.638516666666668,42,main;
1974,614,22,,correct,motorcycle,label,Graduated High School/ Abitur,1595963463030,no match,162,female/ weiblich,dog,label_incorrect,n,deutsch,materials/images/dog_poodle_2.jpg, ,materials/labels/motorcycle_female.wav,Tue Jul 28 2020 20:50:24 GMT+0200 (Mitteleuropäische Sommerzeit),1595962224719,20.638516666666668,43,main;
1974,568,22,,correct,phone,sound,Graduated High School/ Abitur,1595963463030,match,162,female/ weiblich,phone,incongruent,y,deutsch,materials/images/phone_rotary_2.jpg, ,materials/sounds/phone_cell.wav,Tue Jul 28 2020 20:50:24 GMT+0200 (Mitteleuropäische Sommerzeit),1595962224719,20.638516666666668,44,main;
1974,634,22,,correct,drum,sound,Graduated High School/ Abitur,1595963463030,no match,162,female/ weiblich,guitar,sound_incorrect,n,deutsch,materials/images/guitar_acoustic_2.jpg, ,materials/sounds/drum_kit.wav,Tue Jul 28 2020 20:50:24 GMT+0200 (Mitteleuropäische Sommerzeit),1595962224719,20.638516666666668,45,main;
1974,577,22,,correct,bird,label,Graduated High School/ Abitur,1595963463030,no match,162,female/ weiblich,dog,label_incorrect,n,deutsch,materials/images/dog_labmix_2.jpg, ,materials/labels/bird_male.wav,Tue Jul 28 2020 20:50:24 GMT+0200 (Mitteleuropäische Sommerzeit),1595962224719,20.638516666666668,46,main;
1974,517,22,,correct,bird,sound,Graduated High School/ Abitur,1595963463030,no match,162,female/ weiblich,dog,sound_incorrect,n,deutsch,materials/images/dog_labmix_2.jpg, ,materials/sounds/bird_owl.wav,Tue Jul 28 2020 20:50:24 GMT+0200 (Mitteleuropäische Sommerzeit),1595962224719,20.638516666666668,47,main;
1974,521,22,,correct,dog,sound,Graduated High School/ Abitur,1595963463030,match,162,female/ weiblich,dog,congruent,y,deutsch,materials/images/dog_labmix_2.jpg, ,materials/sounds/dog_labmix.wav,Tue Jul 28 2020 20:50:24 GMT+0200 (Mitteleuropäische Sommerzeit),1595962224719,20.638516666666668,48,main;
1974,1182,22,,correct,drum,sound,Graduated High School/ Abitur,1595963463030,no match,162,female/ weiblich,guitar,sound_incorrect,n,deutsch,materials/images/guitar_electric_2.jpg, ,materials/sounds/drum_kit.wav,Tue Jul 28 2020 20:50:24 GMT+0200 (Mitteleuropäische Sommerzeit),1595962224719,20.638516666666668,49,main;
1974,802,22,,correct,motorcycle,sound,Graduated High School/ Abitur,1595963463030,no match,162,female/ weiblich,phone,sound_incorrect,n,deutsch,materials/images/phone_rotary_2.jpg, ,materials/sounds/motorcycle_small.wav,Tue Jul 28 2020 20:50:24 GMT+0200 (Mitteleuropäische Sommerzeit),1595962224719,20.638516666666668,50,main;
1974,499,22,,correct,guitar,label,Graduated High School/ Abitur,1595963463030,match,162,female/ weiblich,guitar,label_correct,y,deutsch,materials/images/guitar_electric_1.jpg, ,materials/labels/guitar_female.wav,Tue Jul 28 2020 20:50:24 GMT+0200 (Mitteleuropäische Sommerzeit),1595962224719,20.638516666666668,51,main;
1974,517,22,,correct,bird,sound,Graduated High School/ Abitur,1595963463030,no match,162,female/ weiblich,motorcycle,sound_incorrect,n,deutsch,materials/images/motorcycle_big_1.jpg, ,materials/sounds/bird_owl.wav,Tue Jul 28 2020 20:50:24 GMT+0200 (Mitteleuropäische Sommerzeit),1595962224719,20.638516666666668,52,main;
1974,444,22,,correct,motorcycle,sound,Graduated High School/ Abitur,1595963463030,match,162,female/ weiblich,motorcycle,congruent,y,deutsch,materials/images/motorcycle_big_1.jpg, ,materials/sounds/motorcycle_big.wav,Tue Jul 28 2020 20:50:24 GMT+0200 (Mitteleuropäische Sommerzeit),1595962224719,20.638516666666668,53,main;
1974,428,22,,correct,motorcycle,label,Graduated High School/ Abitur,1595963463030,match,162,female/ weiblich,motorcycle,label_correct,y,deutsch,materials/images/motorcycle_big_1.jpg, ,materials/labels/motorcycle_male.wav,Tue Jul 28 2020 20:50:24 GMT+0200 (Mitteleuropäische Sommerzeit),1595962224719,20.638516666666668,54,main;
1974,547,22,,correct,guitar,label,Graduated High School/ Abitur,1595963463030,match,162,female/ weiblich,guitar,label_correct,y,deutsch,materials/images/guitar_acoustic_1.jpg, ,materials/labels/guitar_female.wav,Tue Jul 28 2020 20:50:24 GMT+0200 (Mitteleuropäische Sommerzeit),1595962224719,20.638516666666668,55,main;
1974,443,22,,incorrect,drum,label,Graduated High School/ Abitur,1595963463030,match,162,female/ weiblich,drum,label_correct,n,deutsch,materials/images/drum_bongo_2.jpg, ,materials/labels/drum_female.wav,Tue Jul 28 2020 20:50:24 GMT+0200 (Mitteleuropäische Sommerzeit),1595962224719,20.638516666666668,56,main;
1974,630,22,,correct,bird,label,Graduated High School/ Abitur,1595963463030,match,162,female/ weiblich,bird,label_correct,y,deutsch,materials/images/bird_sparrow_2.jpg, ,materials/labels/bird_female.wav,Tue Jul 28 2020 20:50:24 GMT+0200 (Mitteleuropäische Sommerzeit),1595962224719,20.638516666666668,57,main;
1974,725,22,,correct,motorcycle,label,Graduated High School/ Abitur,1595963463030,no match,162,female/ weiblich,drum,label_incorrect,n,deutsch,materials/images/drum_kit_2.jpg, ,materials/labels/motorcycle_female.wav,Tue Jul 28 2020 20:50:24 GMT+0200 (Mitteleuropäische Sommerzeit),1595962224719,20.638516666666668,58,main;
1974,560,22,,correct,bird,label,Graduated High School/ Abitur,1595963463030,no match,162,female/ weiblich,motorcycle,label_incorrect,n,deutsch,materials/images/motorcycle_small_1.jpg, ,materials/labels/bird_female.wav,Tue Jul 28 2020 20:50:24 GMT+0200 (Mitteleuropäische Sommerzeit),1595962224719,20.638516666666668,59,main;
1974,1326,22,,correct,drum,sound,Graduated High School/ Abitur,1595963463030,match,162,female/ weiblich,drum,incongruent,y,deutsch,materials/images/drum_bongo_2.jpg, ,materials/sounds/drum_kit.wav,Tue Jul 28 2020 20:50:24 GMT+0200 (Mitteleuropäische Sommerzeit),1595962224719,20.638516666666668,60,main;
1974,441,22,,correct,dog,sound,Graduated High School/ Abitur,1595963463030,match,162,female/ weiblich,dog,congruent,y,deutsch,materials/images/dog_poodle_2.jpg, ,materials/sounds/dog_poodle.wav,Tue Jul 28 2020 20:50:24 GMT+0200 (Mitteleuropäische Sommerzeit),1595962224719,20.638516666666668,61,main;
1974,459,22,,correct,bird,label,Graduated High School/ Abitur,1595963463030,no match,162,female/ weiblich,guitar,label_incorrect,n,deutsch,materials/images/guitar_electric_2.jpg, ,materials/labels/bird_male.wav,Tue Jul 28 2020 20:50:24 GMT+0200 (Mitteleuropäische Sommerzeit),1595962224719,20.638516666666668,62,main;
1974,764,22,,correct,drum,sound,Graduated High School/ Abitur,1595963463030,match,162,female/ weiblich,drum,incongruent,y,deutsch,materials/images/drum_kit_1.jpg, ,materials/sounds/drum_bongo.wav,Tue Jul 28 2020 20:50:24 GMT+0200 (Mitteleuropäische Sommerzeit),1595962224719,20.638516666666668,63,main;
1974,601,22,,correct,bird,sound,Graduated High School/ Abitur,1595963463030,match,162,female/ weiblich,bird,incongruent,y,deutsch,materials/images/bird_sparrow_1.jpg, ,materials/sounds/bird_owl.wav,Tue Jul 28 2020 20:50:24 GMT+0200 (Mitteleuropäische Sommerzeit),1595962224719,20.638516666666668,64,main;
1974,726,22,,correct,motorcycle,label,Graduated High School/ Abitur,1595963463030,no match,162,female/ weiblich,bird,label_incorrect,n,deutsch,materials/images/bird_sparrow_2.jpg, ,materials/labels/motorcycle_female.wav,Tue Jul 28 2020 20:50:24 GMT+0200 (Mitteleuropäische Sommerzeit),1595962224719,20.638516666666668,65,main;
1974,682,22,,correct,drum,label,Graduated High School/ Abitur,1595963463030,no match,162,female/ weiblich,motorcycle,label_incorrect,n,deutsch,materials/images/motorcycle_small_1.jpg, ,materials/labels/drum_male.wav,Tue Jul 28 2020 20:50:24 GMT+0200 (Mitteleuropäische Sommerzeit),1595962224719,20.638516666666668,66,main;
1974,446,22,,correct,phone,sound,Graduated High School/ Abitur,1595963463030,match,162,female/ weiblich,phone,congruent,y,deutsch,materials/images/phone_cell_2.jpg, ,materials/sounds/phone_cell.wav,Tue Jul 28 2020 20:50:24 GMT+0200 (Mitteleuropäische Sommerzeit),1595962224719,20.638516666666668,67,main;
1974,479,22,,correct,bird,label,Graduated High School/ Abitur,1595963463030,match,162,female/ weiblich,bird,label_correct,y,deutsch,materials/images/bird_sparrow_1.jpg, ,materials/labels/bird_male.wav,Tue Jul 28 2020 20:50:24 GMT+0200 (Mitteleuropäische Sommerzeit),1595962224719,20.638516666666668,68,main;
1974,612,22,,correct,drum,label,Graduated High School/ Abitur,1595963463030,no match,162,female/ weiblich,motorcycle,label_incorrect,n,deutsch,materials/images/motorcycle_small_2.jpg, ,materials/labels/drum_female.wav,Tue Jul 28 2020 20:50:24 GMT+0200 (Mitteleuropäische Sommerzeit),1595962224719,20.638516666666668,69,main;
1974,525,22,,correct,motorcycle,sound,Graduated High School/ Abitur,1595963463030,no match,162,female/ weiblich,phone,sound_incorrect,n,deutsch,materials/images/phone_cell_2.jpg, ,materials/sounds/motorcycle_small.wav,Tue Jul 28 2020 20:50:24 GMT+0200 (Mitteleuropäische Sommerzeit),1595962224719,20.638516666666668,70,main;
1974,514,22,,correct,dog,label,Graduated High School/ Abitur,1595963463030,match,162,female/ weiblich,dog,label_correct,y,deutsch,materials/images/dog_poodle_1.jpg, ,materials/labels/dog_male.wav,Tue Jul 28 2020 20:50:24 GMT+0200 (Mitteleuropäische Sommerzeit),1595962224719,20.638516666666668,71,main;
1974,523,22,,correct,dog,label,Graduated High School/ Abitur,1595963463030,match,162,female/ weiblich,dog,label_correct,y,deutsch,materials/images/dog_labmix_1.jpg, ,materials/labels/dog_male.wav,Tue Jul 28 2020 20:50:24 GMT+0200 (Mitteleuropäische Sommerzeit),1595962224719,20.638516666666668,72,main;
1974,775,22,,correct,bird,label,Graduated High School/ Abitur,1595963463030,no match,162,female/ weiblich,dog,label_incorrect,n,deutsch,materials/images/dog_poodle_1.jpg, ,materials/labels/bird_female.wav,Tue Jul 28 2020 20:50:24 GMT+0200 (Mitteleuropäische Sommerzeit),1595962224719,20.638516666666668,73,main;
1974,532,22,,correct,motorcycle,label,Graduated High School/ Abitur,1595963463030,no match,162,female/ weiblich,phone,label_incorrect,n,deutsch,materials/images/phone_cell_1.jpg, ,materials/labels/motorcycle_female.wav,Tue Jul 28 2020 20:50:24 GMT+0200 (Mitteleuropäische Sommerzeit),1595962224719,20.638516666666668,74,main;
1974,511,22,,correct,dog,label,Graduated High School/ Abitur,1595963463030,match,162,female/ weiblich,dog,label_correct,y,deutsch,materials/images/dog_poodle_2.jpg, ,materials/labels/dog_female.wav,Tue Jul 28 2020 20:50:24 GMT+0200 (Mitteleuropäische Sommerzeit),1595962224719,20.638516666666668,75,main;
1974,527,22,,correct,drum,label,Graduated High School/ Abitur,1595963463030,no match,162,female/ weiblich,phone,label_incorrect,n,deutsch,materials/images/phone_cell_2.jpg, ,materials/labels/drum_female.wav,Tue Jul 28 2020 20:50:24 GMT+0200 (Mitteleuropäische Sommerzeit),1595962224719,20.638516666666668,76,main;
1974,505,22,,correct,guitar,sound,Graduated High School/ Abitur,1595963463030,match,162,female/ weiblich,guitar,incongruent,y,deutsch,materials/images/guitar_acoustic_2.jpg, ,materials/sounds/guitar_electric.wav,Tue Jul 28 2020 20:50:24 GMT+0200 (Mitteleuropäische Sommerzeit),1595962224719,20.638516666666668,77,main;
1974,485,22,,correct,motorcycle,sound,Graduated High School/ Abitur,1595963463030,match,162,female/ weiblich,motorcycle,incongruent,y,deutsch,materials/images/motorcycle_small_2.jpg, ,materials/sounds/motorcycle_big.wav,Tue Jul 28 2020 20:50:24 GMT+0200 (Mitteleuropäische Sommerzeit),1595962224719,20.638516666666668,78,main;
1974,503,22,,correct,bird,sound,Graduated High School/ Abitur,1595963463030,no match,162,female/ weiblich,drum,sound_incorrect,n,deutsch,materials/images/drum_kit_2.jpg, ,materials/sounds/bird_sparrow.wav,Tue Jul 28 2020 20:50:24 GMT+0200 (Mitteleuropäische Sommerzeit),1595962224719,20.638516666666668,79,main;
1974,557,22,,correct,bird,label,Graduated High School/ Abitur,1595963463030,no match,162,female/ weiblich,phone,label_incorrect,n,deutsch,materials/images/phone_cell_1.jpg, ,materials/labels/bird_male.wav,Tue Jul 28 2020 20:50:24 GMT+0200 (Mitteleuropäische Sommerzeit),1595962224719,20.638516666666668,80,main;
1974,945,22,,correct,motorcycle,sound,Graduated High School/ Abitur,1595963463030,no match,162,female/ weiblich,phone,sound_incorrect,n,deutsch,materials/images/phone_rotary_2.jpg, ,materials/sounds/motorcycle_big.wav,Tue Jul 28 2020 20:50:24 GMT+0200 (Mitteleuropäische Sommerzeit),1595962224719,20.638516666666668,81,main;
1974,505,22,,correct,motorcycle,label,Graduated High School/ Abitur,1595963463030,no match,162,female/ weiblich,bird,label_incorrect,n,deutsch,materials/images/bird_sparrow_1.jpg, ,materials/labels/motorcycle_female.wav,Tue Jul 28 2020 20:50:24 GMT+0200 (Mitteleuropäische Sommerzeit),1595962224719,20.638516666666668,82,main;
1974,552,22,,correct,motorcycle,label,Graduated High School/ Abitur,1595963463030,match,162,female/ weiblich,motorcycle,label_correct,y,deutsch,materials/images/motorcycle_big_1.jpg, ,materials/labels/motorcycle_female.wav,Tue Jul 28 2020 20:50:24 GMT+0200 (Mitteleuropäische Sommerzeit),1595962224719,20.638516666666668,83,main;
1974,575,22,,correct,drum,sound,Graduated High School/ Abitur,1595963463030,no match,162,female/ weiblich,motorcycle,sound_incorrect,n,deutsch,materials/images/motorcycle_big_2.jpg, ,materials/sounds/drum_bongo.wav,Tue Jul 28 2020 20:50:24 GMT+0200 (Mitteleuropäische Sommerzeit),1595962224719,20.638516666666668,84,main;
1974,540,22,,correct,drum,sound,Graduated High School/ Abitur,1595963463030,no match,162,female/ weiblich,dog,sound_incorrect,n,deutsch,materials/images/dog_labmix_1.jpg, ,materials/sounds/drum_kit.wav,Tue Jul 28 2020 20:50:24 GMT+0200 (Mitteleuropäische Sommerzeit),1595962224719,20.638516666666668,85,main;
1974,470,22,,correct,bird,sound,Graduated High School/ Abitur,1595963463030,match,162,female/ weiblich,bird,congruent,y,deutsch,materials/images/bird_owl_1.jpg, ,materials/sounds/bird_owl.wav,Tue Jul 28 2020 20:50:24 GMT+0200 (Mitteleuropäische Sommerzeit),1595962224719,20.638516666666668,86,main;
1974,590,22,,correct,guitar,sound,Graduated High School/ Abitur,1595963463030,match,162,female/ weiblich,guitar,congruent,y,deutsch,materials/images/guitar_acoustic_1.jpg, ,materials/sounds/guitar_acoustic.wav,Tue Jul 28 2020 20:50:24 GMT+0200 (Mitteleuropäische Sommerzeit),1595962224719,20.638516666666668,87,main;
1974,616,22,,correct,bird,label,Graduated High School/ Abitur,1595963463030,match,162,female/ weiblich,bird,label_correct,y,deutsch,materials/images/bird_owl_1.jpg, ,materials/labels/bird_female.wav,Tue Jul 28 2020 20:50:24 GMT+0200 (Mitteleuropäische Sommerzeit),1595962224719,20.638516666666668,88,main;
1974,716,22,,correct,motorcycle,label,Graduated High School/ Abitur,1595963463030,no match,162,female/ weiblich,phone,label_incorrect,n,deutsch,materials/images/phone_rotary_2.jpg, ,materials/labels/motorcycle_male.wav,Tue Jul 28 2020 20:50:24 GMT+0200 (Mitteleuropäische Sommerzeit),1595962224719,20.638516666666668,89,main;
1974,607,22,,correct,drum,sound,Graduated High School/ Abitur,1595963463030,no match,162,female/ weiblich,dog,sound_incorrect,n,deutsch,materials/images/dog_labmix_2.jpg, ,materials/sounds/drum_kit.wav,Tue Jul 28 2020 20:50:24 GMT+0200 (Mitteleuropäische Sommerzeit),1595962224719,20.638516666666668,90,main;
1974,493,22,,correct,bird,label,Graduated High School/ Abitur,1595963463030,no match,162,female/ weiblich,guitar,label_incorrect,n,deutsch,materials/images/guitar_electric_2.jpg, ,materials/labels/bird_female.wav,Tue Jul 28 2020 20:50:24 GMT+0200 (Mitteleuropäische Sommerzeit),1595962224719,20.638516666666668,91,main;
1974,582,22,,correct,phone,label,Graduated High School/ Abitur,1595963463030,match,162,female/ weiblich,phone,label_correct,y,deutsch,materials/images/phone_cell_1.jpg, ,materials/labels/phone_female.wav,Tue Jul 28 2020 20:50:24 GMT+0200 (Mitteleuropäische Sommerzeit),1595962224719,20.638516666666668,92,main;
1974,499,22,,correct,bird,label,Graduated High School/ Abitur,1595963463030,no match,162,female/ weiblich,guitar,label_incorrect,n,deutsch,materials/images/guitar_acoustic_2.jpg, ,materials/labels/bird_female.wav,Tue Jul 28 2020 20:50:24 GMT+0200 (Mitteleuropäische Sommerzeit),1595962224719,20.638516666666668,93,main;
1974,566,22,,correct,motorcycle,sound,Graduated High School/ Abitur,1595963463030,no match,162,female/ weiblich,drum,sound_incorrect,n,deutsch,materials/images/drum_bongo_1.jpg, ,materials/sounds/motorcycle_big.wav,Tue Jul 28 2020 20:50:24 GMT+0200 (Mitteleuropäische Sommerzeit),1595962224719,20.638516666666668,94,main;
1974,559,22,,correct,phone,sound,Graduated High School/ Abitur,1595963463030,match,162,female/ weiblich,phone,congruent,y,deutsch,materials/images/phone_cell_1.jpg, ,materials/sounds/phone_cell.wav,Tue Jul 28 2020 20:50:24 GMT+0200 (Mitteleuropäische Sommerzeit),1595962224719,20.638516666666668,95,main;
1974,588,22,,correct,motorcycle,sound,Graduated High School/ Abitur,1595963463030,no match,162,female/ weiblich,dog,sound_incorrect,n,deutsch,materials/images/dog_labmix_2.jpg, ,materials/sounds/motorcycle_small.wav,Tue Jul 28 2020 20:50:24 GMT+0200 (Mitteleuropäische Sommerzeit),1595962224719,20.638516666666668,96,main;
1974,762,22,,correct,dog,label,Graduated High School/ Abitur,1595963463030,match,162,female/ weiblich,dog,label_correct,y,deutsch,materials/images/dog_poodle_1.jpg, ,materials/labels/dog_female.wav,Tue Jul 28 2020 20:50:24 GMT+0200 (Mitteleuropäische Sommerzeit),1595962224719,20.638516666666668,97,main;
1974,667,22,,incorrect,motorcycle,label,Graduated High School/ Abitur,1595963463030,match,162,female/ weiblich,motorcycle,label_correct,n,deutsch,materials/images/motorcycle_small_2.jpg, ,materials/labels/motorcycle_male.wav,Tue Jul 28 2020 20:50:24 GMT+0200 (Mitteleuropäische Sommerzeit),1595962224719,20.638516666666668,98,main;
1974,577,22,,correct,drum,label,Graduated High School/ Abitur,1595963463030,match,162,female/ weiblich,drum,label_correct,y,deutsch,materials/images/drum_bongo_1.jpg, ,materials/labels/drum_female.wav,Tue Jul 28 2020 20:50:24 GMT+0200 (Mitteleuropäische Sommerzeit),1595962224719,20.638516666666668,99,main;
1974,551,22,,correct,bird,label,Graduated High School/ Abitur,1595963463030,no match,162,female/ weiblich,phone,label_incorrect,n,deutsch,materials/images/phone_rotary_2.jpg, ,materials/labels/bird_female.wav,Tue Jul 28 2020 20:50:24 GMT+0200 (Mitteleuropäische Sommerzeit),1595962224719,20.638516666666668,100,main;
1974,723,22,,correct,drum,sound,Graduated High School/ Abitur,1595963463030,no match,162,female/ weiblich,guitar,sound_incorrect,n,deutsch,materials/images/guitar_electric_1.jpg, ,materials/sounds/drum_kit.wav,Tue Jul 28 2020 20:50:24 GMT+0200 (Mitteleuropäische Sommerzeit),1595962224719,20.638516666666668,101,main;
1974,590,22,,correct,motorcycle,label,Graduated High School/ Abitur,1595963463030,no match,162,female/ weiblich,dog,label_incorrect,n,deutsch,materials/images/dog_labmix_1.jpg, ,materials/labels/motorcycle_female.wav,Tue Jul 28 2020 20:50:24 GMT+0200 (Mitteleuropäische Sommerzeit),1595962224719,20.638516666666668,102,main;
1974,521,22,,correct,drum,label,Graduated High School/ Abitur,1595963463030,no match,162,female/ weiblich,dog,label_incorrect,n,deutsch,materials/images/dog_labmix_1.jpg, ,materials/labels/drum_male.wav,Tue Jul 28 2020 20:50:24 GMT+0200 (Mitteleuropäische Sommerzeit),1595962224719,20.638516666666668,103,main;
1974,601,22,,correct,motorcycle,label,Graduated High School/ Abitur,1595963463030,match,162,female/ weiblich,motorcycle,label_correct,y,deutsch,materials/images/motorcycle_small_2.jpg, ,materials/labels/motorcycle_female.wav,Tue Jul 28 2020 20:50:24 GMT+0200 (Mitteleuropäische Sommerzeit),1595962224719,20.638516666666668,104,main;
1974,541,22,,correct,bird,sound,Graduated High School/ Abitur,1595963463030,no match,162,female/ weiblich,phone,sound_incorrect,n,deutsch,materials/images/phone_cell_2.jpg, ,materials/sounds/bird_sparrow.wav,Tue Jul 28 2020 20:50:24 GMT+0200 (Mitteleuropäische Sommerzeit),1595962224719,20.638516666666668,105,main;
1974,624,22,,correct,dog,label,Graduated High School/ Abitur,1595963463030,match,162,female/ weiblich,dog,label_correct,y,deutsch,materials/images/dog_poodle_2.jpg, ,materials/labels/dog_male.wav,Tue Jul 28 2020 20:50:24 GMT+0200 (Mitteleuropäische Sommerzeit),1595962224719,20.638516666666668,106,main;
1974,534,22,,correct,bird,label,Graduated High School/ Abitur,1595963463030,no match,162,female/ weiblich,phone,label_incorrect,n,deutsch,materials/images/phone_cell_2.jpg, ,materials/labels/bird_female.wav,Tue Jul 28 2020 20:50:24 GMT+0200 (Mitteleuropäische Sommerzeit),1595962224719,20.638516666666668,107,main;
1974,562,22,,correct,motorcycle,sound,Graduated High School/ Abitur,1595963463030,match,162,female/ weiblich,motorcycle,congruent,y,deutsch,materials/images/motorcycle_big_2.jpg, ,materials/sounds/motorcycle_big.wav,Tue Jul 28 2020 20:50:24 GMT+0200 (Mitteleuropäische Sommerzeit),1595962224719,20.638516666666668,108,main;
1974,602,22,,correct,drum,sound,Graduated High School/ Abitur,1595963463030,no match,162,female/ weiblich,guitar,sound_incorrect,n,deutsch,materials/images/guitar_acoustic_1.jpg, ,materials/sounds/drum_kit.wav,Tue Jul 28 2020 20:50:24 GMT+0200 (Mitteleuropäische Sommerzeit),1595962224719,20.638516666666668,109,main;
1974,584,22,,correct,guitar,label,Graduated High School/ Abitur,1595963463030,match,162,female/ weiblich,guitar,label_correct,y,deutsch,materials/images/guitar_electric_1.jpg, ,materials/labels/guitar_male.wav,Tue Jul 28 2020 20:50:24 GMT+0200 (Mitteleuropäische Sommerzeit),1595962224719,20.638516666666668,110,main;
1974,554,22,,correct,bird,label,Graduated High School/ Abitur,1595963463030,no match,162,female/ weiblich,drum,label_incorrect,n,deutsch,materials/images/drum_bongo_2.jpg, ,materials/labels/bird_male.wav,Tue Jul 28 2020 20:50:24 GMT+0200 (Mitteleuropäische Sommerzeit),1595962224719,20.638516666666668,111,main;
1974,516,22,,correct,motorcycle,sound,Graduated High School/ Abitur,1595963463030,no match,162,female/ weiblich,guitar,sound_incorrect,n,deutsch,materials/images/guitar_electric_1.jpg, ,materials/sounds/motorcycle_big.wav,Tue Jul 28 2020 20:50:24 GMT+0200 (Mitteleuropäische Sommerzeit),1595962224719,20.638516666666668,112,main;
1974,542,22,,correct,phone,label,Graduated High School/ Abitur,1595963463030,match,162,female/ weiblich,phone,label_correct,y,deutsch,materials/images/phone_rotary_1.jpg, ,materials/labels/phone_female.wav,Tue Jul 28 2020 20:50:24 GMT+0200 (Mitteleuropäische Sommerzeit),1595962224719,20.638516666666668,113,main;
1974,610,22,,correct,phone,label,Graduated High School/ Abitur,1595963463030,match,162,female/ weiblich,phone,label_correct,y,deutsch,materials/images/phone_rotary_1.jpg, ,materials/labels/phone_male.wav,Tue Jul 28 2020 20:50:24 GMT+0200 (Mitteleuropäische Sommerzeit),1595962224719,20.638516666666668,114,main;
1974,717,22,,correct,dog,sound,Graduated High School/ Abitur,1595963463030,match,162,female/ weiblich,dog,incongruent,y,deutsch,materials/images/dog_poodle_2.jpg, ,materials/sounds/dog_labmix.wav,Tue Jul 28 2020 20:50:24 GMT+0200 (Mitteleuropäische Sommerzeit),1595962224719,20.638516666666668,115,main;
1974,791,22,,correct,phone,sound,Graduated High School/ Abitur,1595963463030,match,162,female/ weiblich,phone,congruent,y,deutsch,materials/images/phone_rotary_1.jpg, ,materials/sounds/phone_rotary.wav,Tue Jul 28 2020 20:50:24 GMT+0200 (Mitteleuropäische Sommerzeit),1595962224719,20.638516666666668,116,main;
1974,644,22,,correct,drum,label,Graduated High School/ Abitur,1595963463030,match,162,female/ weiblich,drum,label_correct,y,deutsch,materials/images/drum_kit_1.jpg, ,materials/labels/drum_female.wav,Tue Jul 28 2020 20:50:24 GMT+0200 (Mitteleuropäische Sommerzeit),1595962224719,20.638516666666668,117,main;
1974,700,22,,correct,bird,label,Graduated High School/ Abitur,1595963463030,no match,162,female/ weiblich,drum,label_incorrect,n,deutsch,materials/images/drum_kit_1.jpg, ,materials/labels/bird_male.wav,Tue Jul 28 2020 20:50:24 GMT+0200 (Mitteleuropäische Sommerzeit),1595962224719,20.638516666666668,118,main;
1974,562,22,,correct,dog,sound,Graduated High School/ Abitur,1595963463030,match,162,female/ weiblich,dog,incongruent,y,deutsch,materials/images/dog_labmix_1.jpg, ,materials/sounds/dog_poodle.wav,Tue Jul 28 2020 20:50:24 GMT+0200 (Mitteleuropäische Sommerzeit),1595962224719,20.638516666666668,119,main;
1974,641,22,,correct,motorcycle,label,Graduated High School/ Abitur,1595963463030,no match,162,female/ weiblich,guitar,label_incorrect,n,deutsch,materials/images/guitar_electric_1.jpg, ,materials/labels/motorcycle_male.wav,Tue Jul 28 2020 20:50:24 GMT+0200 (Mitteleuropäische Sommerzeit),1595962224719,20.638516666666668,120,main;
1974,527,22,,correct,dog,label,Graduated High School/ Abitur,1595963463030,match,162,female/ weiblich,dog,label_correct,y,deutsch,materials/images/dog_labmix_2.jpg, ,materials/labels/dog_female.wav,Tue Jul 28 2020 20:50:24 GMT+0200 (Mitteleuropäische Sommerzeit),1595962224719,20.638516666666668,121,main;
1974,546,22,,correct,drum,label,Graduated High School/ Abitur,1595963463030,no match,162,female/ weiblich,bird,label_incorrect,n,deutsch,materials/images/bird_owl_1.jpg, ,materials/labels/drum_female.wav,Tue Jul 28 2020 20:50:24 GMT+0200 (Mitteleuropäische Sommerzeit),1595962224719,20.638516666666668,122,main;
1974,467,22,,correct,dog,label,Graduated High School/ Abitur,1595963463030,match,162,female/ weiblich,dog,label_correct,y,deutsch,materials/images/dog_labmix_1.jpg, ,materials/labels/dog_female.wav,Tue Jul 28 2020 20:50:24 GMT+0200 (Mitteleuropäische Sommerzeit),1595962224719,20.638516666666668,123,main;
1974,777,22,,correct,drum,sound,Graduated High School/ Abitur,1595963463030,match,162,female/ weiblich,drum,incongruent,y,deutsch,materials/images/drum_bongo_1.jpg, ,materials/sounds/drum_kit.wav,Tue Jul 28 2020 20:50:24 GMT+0200 (Mitteleuropäische Sommerzeit),1595962224719,20.638516666666668,124,main;
1974,569,22,,correct,dog,sound,Graduated High School/ Abitur,1595963463030,match,162,female/ weiblich,dog,incongruent,y,deutsch,materials/images/dog_poodle_1.jpg, ,materials/sounds/dog_labmix.wav,Tue Jul 28 2020 20:50:24 GMT+0200 (Mitteleuropäische Sommerzeit),1595962224719,20.638516666666668,125,main;
1974,808,22,,correct,drum,sound,Graduated High School/ Abitur,1595963463030,match,162,female/ weiblich,drum,congruent,y,deutsch,materials/images/drum_bongo_2.jpg, ,materials/sounds/drum_bongo.wav,Tue Jul 28 2020 20:50:24 GMT+0200 (Mitteleuropäische Sommerzeit),1595962224719,20.638516666666668,126,main;
1974,588,22,,correct,phone,sound,Graduated High School/ Abitur,1595963463030,match,162,female/ weiblich,phone,congruent,y,deutsch,materials/images/phone_rotary_2.jpg, ,materials/sounds/phone_rotary.wav,Tue Jul 28 2020 20:50:24 GMT+0200 (Mitteleuropäische Sommerzeit),1595962224719,20.638516666666668,127,main;
1974,513,22,,correct,dog,sound,Graduated High School/ Abitur,1595963463030,match,162,female/ weiblich,dog,congruent,y,deutsch,materials/images/dog_poodle_1.jpg, ,materials/sounds/dog_poodle.wav,Tue Jul 28 2020 20:50:24 GMT+0200 (Mitteleuropäische Sommerzeit),1595962224719,20.638516666666668,128,main;
1974,689,22,,correct,phone,sound,Graduated High School/ Abitur,1595963463030,match,162,female/ weiblich,phone,incongruent,y,deutsch,materials/images/phone_cell_2.jpg, ,materials/sounds/phone_rotary.wav,Tue Jul 28 2020 20:50:24 GMT+0200 (Mitteleuropäische Sommerzeit),1595962224719,20.638516666666668,129,main;
1974,557,22,,correct,guitar,sound,Graduated High School/ Abitur,1595963463030,match,162,female/ weiblich,guitar,congruent,y,deutsch,materials/images/guitar_acoustic_2.jpg, ,materials/sounds/guitar_acoustic.wav,Tue Jul 28 2020 20:50:24 GMT+0200 (Mitteleuropäische Sommerzeit),1595962224719,20.638516666666668,130,main;
1974,613,22,,correct,drum,sound,Graduated High School/ Abitur,1595963463030,no match,162,female/ weiblich,dog,sound_incorrect,n,deutsch,materials/images/dog_poodle_1.jpg, ,materials/sounds/drum_kit.wav,Tue Jul 28 2020 20:50:24 GMT+0200 (Mitteleuropäische Sommerzeit),1595962224719,20.638516666666668,131,main;
1974,720,22,,correct,drum,sound,Graduated High School/ Abitur,1595963463030,no match,162,female/ weiblich,bird,sound_incorrect,n,deutsch,materials/images/bird_owl_2.jpg, ,materials/sounds/drum_kit.wav,Tue Jul 28 2020 20:50:24 GMT+0200 (Mitteleuropäische Sommerzeit),1595962224719,20.638516666666668,132,main;
1974,648,22,,correct,drum,label,Graduated High School/ Abitur,1595963463030,no match,162,female/ weiblich,motorcycle,label_incorrect,n,deutsch,materials/images/motorcycle_big_1.jpg, ,materials/labels/drum_male.wav,Tue Jul 28 2020 20:50:24 GMT+0200 (Mitteleuropäische Sommerzeit),1595962224719,20.638516666666668,133,main;
1974,489,22,,correct,motorcycle,sound,Graduated High School/ Abitur,1595963463030,match,162,female/ weiblich,motorcycle,congruent,y,deutsch,materials/images/motorcycle_small_2.jpg, ,materials/sounds/motorcycle_small.wav,Tue Jul 28 2020 20:50:24 GMT+0200 (Mitteleuropäische Sommerzeit),1595962224719,20.638516666666668,134,main;
1974,564,22,,correct,phone,sound,Graduated High School/ Abitur,1595963463030,match,162,female/ weiblich,phone,incongruent,y,deutsch,materials/images/phone_rotary_1.jpg, ,materials/sounds/phone_cell.wav,Tue Jul 28 2020 20:50:24 GMT+0200 (Mitteleuropäische Sommerzeit),1595962224719,20.638516666666668,135,main;
1974,666,22,,correct,guitar,label,Graduated High School/ Abitur,1595963463030,match,162,female/ weiblich,guitar,label_correct,y,deutsch,materials/images/guitar_acoustic_2.jpg, ,materials/labels/guitar_male.wav,Tue Jul 28 2020 20:50:24 GMT+0200 (Mitteleuropäische Sommerzeit),1595962224719,20.638516666666668,136,main;
1974,455,22,,correct,phone,label,Graduated High School/ Abitur,1595963463030,match,162,female/ weiblich,phone,label_correct,y,deutsch,materials/images/phone_cell_1.jpg, ,materials/labels/phone_male.wav,Tue Jul 28 2020 20:50:24 GMT+0200 (Mitteleuropäische Sommerzeit),1595962224719,20.638516666666668,137,main;
1974,441,22,,correct,guitar,sound,Graduated High School/ Abitur,1595963463030,no match,162,female/ weiblich,bird,sound_incorrect,n,deutsch,materials/images/bird_owl_1.jpg, ,materials/sounds/guitar_electric.wav,Tue Jul 28 2020 20:50:24 GMT+0200 (Mitteleuropäische Sommerzeit),1595962224719,20.638516666666668,138,main;
1974,552,22,,correct,guitar,sound,Graduated High School/ Abitur,1595963463030,match,162,female/ weiblich,guitar,incongruent,y,deutsch,materials/images/guitar_electric_2.jpg, ,materials/sounds/guitar_acoustic.wav,Tue Jul 28 2020 20:50:24 GMT+0200 (Mitteleuropäische Sommerzeit),1595962224719,20.638516666666668,139,main;
1974,579,22,,correct,motorcycle,label,Graduated High School/ Abitur,1595963463030,match,162,female/ weiblich,motorcycle,label_correct,y,deutsch,materials/images/motorcycle_big_2.jpg, ,materials/labels/motorcycle_female.wav,Tue Jul 28 2020 20:50:24 GMT+0200 (Mitteleuropäische Sommerzeit),1595962224719,20.638516666666668,140,main;
1974,534,22,,correct,drum,label,Graduated High School/ Abitur,1595963463030,no match,162,female/ weiblich,dog,label_incorrect,n,deutsch,materials/images/dog_labmix_2.jpg, ,materials/labels/drum_male.wav,Tue Jul 28 2020 20:50:24 GMT+0200 (Mitteleuropäische Sommerzeit),1595962224719,20.638516666666668,141,main;
1974,619,22,,correct,drum,sound,Graduated High School/ Abitur,1595963463030,no match,162,female/ weiblich,guitar,sound_incorrect,n,deutsch,materials/images/guitar_electric_2.jpg, ,materials/sounds/drum_bongo.wav,Tue Jul 28 2020 20:50:24 GMT+0200 (Mitteleuropäische Sommerzeit),1595962224719,20.638516666666668,142,main;
1974,538,22,,correct,guitar,label,Graduated High School/ Abitur,1595963463030,match,162,female/ weiblich,guitar,label_correct,y,deutsch,materials/images/guitar_electric_2.jpg, ,materials/labels/guitar_male.wav,Tue Jul 28 2020 20:50:24 GMT+0200 (Mitteleuropäische Sommerzeit),1595962224719,20.638516666666668,143,main;
1974,475,22,,correct,guitar,label,Graduated High School/ Abitur,1595963463030,match,162,female/ weiblich,guitar,label_correct,y,deutsch,materials/images/guitar_electric_2.jpg, ,materials/labels/guitar_female.wav,Tue Jul 28 2020 20:50:24 GMT+0200 (Mitteleuropäische Sommerzeit),1595962224719,20.638516666666668,144,main;
1974,814,22,,correct,bird,sound,Graduated High School/ Abitur,1595963463030,no match,162,female/ weiblich,dog,sound_incorrect,n,deutsch,materials/images/dog_labmix_1.jpg, ,materials/sounds/bird_owl.wav,Tue Jul 28 2020 20:50:24 GMT+0200 (Mitteleuropäische Sommerzeit),1595962224719,20.638516666666668,145,main;
1974,687,22,,correct,motorcycle,label,Graduated High School/ Abitur,1595963463030,no match,162,female/ weiblich,drum,label_incorrect,n,deutsch,materials/images/drum_kit_1.jpg, ,materials/labels/motorcycle_male.wav,Tue Jul 28 2020 20:50:24 GMT+0200 (Mitteleuropäische Sommerzeit),1595962224719,20.638516666666668,146,main;
1974,934,22,,correct,motorcycle,sound,Graduated High School/ Abitur,1595963463030,match,162,female/ weiblich,motorcycle,incongruent,y,deutsch,materials/images/motorcycle_small_1.jpg, ,materials/sounds/motorcycle_big.wav,Tue Jul 28 2020 20:50:24 GMT+0200 (Mitteleuropäische Sommerzeit),1595962224719,20.638516666666668,147,main;
1974,497,22,,correct,bird,sound,Graduated High School/ Abitur,1595963463030,no match,162,female/ weiblich,motorcycle,sound_incorrect,n,deutsch,materials/images/motorcycle_small_1.jpg, ,materials/sounds/bird_sparrow.wav,Tue Jul 28 2020 20:50:24 GMT+0200 (Mitteleuropäische Sommerzeit),1595962224719,20.638516666666668,148,main;
1974,536,22,,correct,motorcycle,label,Graduated High School/ Abitur,1595963463030,no match,162,female/ weiblich,bird,label_incorrect,n,deutsch,materials/images/bird_owl_1.jpg, ,materials/labels/motorcycle_female.wav,Tue Jul 28 2020 20:50:24 GMT+0200 (Mitteleuropäische Sommerzeit),1595962224719,20.638516666666668,149,main;
1974,490,22,,correct,guitar,label,Graduated High School/ Abitur,1595963463030,match,162,female/ weiblich,guitar,label_correct,y,deutsch,materials/images/guitar_acoustic_2.jpg, ,materials/labels/guitar_female.wav,Tue Jul 28 2020 20:50:24 GMT+0200 (Mitteleuropäische Sommerzeit),1595962224719,20.638516666666668,150,main;
1974,503,22,,correct,drum,label,Graduated High School/ Abitur,1595963463030,no match,162,female/ weiblich,guitar,label_incorrect,n,deutsch,materials/images/guitar_acoustic_2.jpg, ,materials/labels/drum_male.wav,Tue Jul 28 2020 20:50:24 GMT+0200 (Mitteleuropäische Sommerzeit),1595962224719,20.638516666666668,151,main;
1974,506,22,,correct,bird,sound,Graduated High School/ Abitur,1595963463030,no match,162,female/ weiblich,drum,sound_incorrect,n,deutsch,materials/images/drum_kit_1.jpg, ,materials/sounds/bird_owl.wav,Tue Jul 28 2020 20:50:24 GMT+0200 (Mitteleuropäische Sommerzeit),1595962224719,20.638516666666668,152,main;
1974,558,22,,correct,motorcycle,label,Graduated High School/ Abitur,1595963463030,match,162,female/ weiblich,motorcycle,label_correct,y,deutsch,materials/images/motorcycle_small_1.jpg, ,materials/labels/motorcycle_female.wav,Tue Jul 28 2020 20:50:24 GMT+0200 (Mitteleuropäische Sommerzeit),1595962224719,20.638516666666668,153,main;
1974,521,22,,correct,motorcycle,sound,Graduated High School/ Abitur,1595963463030,no match,162,female/ weiblich,dog,sound_incorrect,n,deutsch,materials/images/dog_poodle_1.jpg, ,materials/sounds/motorcycle_small.wav,Tue Jul 28 2020 20:50:24 GMT+0200 (Mitteleuropäische Sommerzeit),1595962224719,20.638516666666668,154,main;
1974,610,22,,correct,bird,sound,Graduated High School/ Abitur,1595963463030,match,162,female/ weiblich,bird,congruent,y,deutsch,materials/images/bird_owl_2.jpg, ,materials/sounds/bird_owl.wav,Tue Jul 28 2020 20:50:24 GMT+0200 (Mitteleuropäische Sommerzeit),1595962224719,20.638516666666668,155,main;
1974,565,22,,correct,bird,label,Graduated High School/ Abitur,1595963463030,match,162,female/ weiblich,bird,label_correct,y,deutsch,materials/images/bird_owl_2.jpg, ,materials/labels/bird_male.wav,Tue Jul 28 2020 20:50:24 GMT+0200 (Mitteleuropäische Sommerzeit),1595962224719,20.638516666666668,156,main;
1974,666,22,,correct,drum,label,Graduated High School/ Abitur,1595963463030,no match,162,female/ weiblich,guitar,label_incorrect,n,deutsch,materials/images/guitar_electric_2.jpg, ,materials/labels/drum_female.wav,Tue Jul 28 2020 20:50:24 GMT+0200 (Mitteleuropäische Sommerzeit),1595962224719,20.638516666666668,157,main;
1974,485,22,,correct,drum,label,Graduated High School/ Abitur,1595963463030,no match,162,female/ weiblich,dog,label_incorrect,n,deutsch,materials/images/dog_poodle_1.jpg, ,materials/labels/drum_male.wav,Tue Jul 28 2020 20:50:24 GMT+0200 (Mitteleuropäische Sommerzeit),1595962224719,20.638516666666668,158,main;
1974,473,22,,correct,motorcycle,sound,Graduated High School/ Abitur,1595963463030,match,162,female/ weiblich,motorcycle,congruent,y,deutsch,materials/images/motorcycle_small_1.jpg, ,materials/sounds/motorcycle_small.wav,Tue Jul 28 2020 20:50:24 GMT+0200 (Mitteleuropäische Sommerzeit),1595962224719,20.638516666666668,159,main;
1974,572,22,,correct,guitar,sound,Graduated High School/ Abitur,1595963463030,match,162,female/ weiblich,guitar,congruent,y,deutsch,materials/images/guitar_electric_1.jpg, ,materials/sounds/guitar_electric.wav,Tue Jul 28 2020 20:50:24 GMT+0200 (Mitteleuropäische Sommerzeit),1595962224719,20.638516666666668,160,main;
1974,531,22,,correct,bird,sound,Graduated High School/ Abitur,1595963463030,no match,162,female/ weiblich,phone,sound_incorrect,n,deutsch,materials/images/phone_rotary_1.jpg, ,materials/sounds/bird_owl.wav,Tue Jul 28 2020 20:50:24 GMT+0200 (Mitteleuropäische Sommerzeit),1595962224719,20.638516666666668,161,main;
1974,529,22,,correct,bird,label,Graduated High School/ Abitur,1595963463030,no match,162,female/ weiblich,motorcycle,label_incorrect,n,deutsch,materials/images/motorcycle_small_2.jpg, ,materials/labels/bird_female.wav,Tue Jul 28 2020 20:50:24 GMT+0200 (Mitteleuropäische Sommerzeit),1595962224719,20.638516666666668,162,main;
1974,500,22,,correct,bird,sound,Graduated High School/ Abitur,1595963463030,match,162,female/ weiblich,bird,congruent,y,deutsch,materials/images/bird_sparrow_1.jpg, ,materials/sounds/bird_sparrow.wav,Tue Jul 28 2020 20:50:24 GMT+0200 (Mitteleuropäische Sommerzeit),1595962224719,20.638516666666668,163,main;
1974,434,22,,correct,bird,sound,Graduated High School/ Abitur,1595963463030,no match,162,female/ weiblich,drum,sound_incorrect,n,deutsch,materials/images/drum_kit_1.jpg, ,materials/sounds/bird_sparrow.wav,Tue Jul 28 2020 20:50:24 GMT+0200 (Mitteleuropäische Sommerzeit),1595962224719,20.638516666666668,164,main;
1974,505,22,,correct,drum,sound,Graduated High School/ Abitur,1595963463030,no match,162,female/ weiblich,motorcycle,sound_incorrect,n,deutsch,materials/images/motorcycle_big_1.jpg, ,materials/sounds/drum_kit.wav,Tue Jul 28 2020 20:50:24 GMT+0200 (Mitteleuropäische Sommerzeit),1595962224719,20.638516666666668,165,main;
1974,713,22,,correct,drum,sound,Graduated High School/ Abitur,1595963463030,match,162,female/ weiblich,drum,incongruent,y,deutsch,materials/images/drum_kit_2.jpg, ,materials/sounds/drum_bongo.wav,Tue Jul 28 2020 20:50:24 GMT+0200 (Mitteleuropäische Sommerzeit),1595962224719,20.638516666666668,166,main;
1974,581,22,,correct,drum,label,Graduated High School/ Abitur,1595963463030,match,162,female/ weiblich,drum,label_correct,y,deutsch,materials/images/drum_bongo_1.jpg, ,materials/labels/drum_male.wav,Tue Jul 28 2020 20:50:24 GMT+0200 (Mitteleuropäische Sommerzeit),1595962224719,20.638516666666668,167,main;
1974,553,22,,correct,motorcycle,sound,Graduated High School/ Abitur,1595963463030,no match,162,female/ weiblich,dog,sound_incorrect,n,deutsch,materials/images/dog_poodle_1.jpg, ,materials/sounds/motorcycle_big.wav,Tue Jul 28 2020 20:50:24 GMT+0200 (Mitteleuropäische Sommerzeit),1595962224719,20.638516666666668,168,main;
1974,817,22,,correct,bird,sound,Graduated High School/ Abitur,1595963463030,no match,162,female/ weiblich,dog,sound_incorrect,n,deutsch,materials/images/dog_labmix_1.jpg, ,materials/sounds/bird_sparrow.wav,Tue Jul 28 2020 20:50:24 GMT+0200 (Mitteleuropäische Sommerzeit),1595962224719,20.638516666666668,169,main;
1974,656,22,,correct,bird,sound,Graduated High School/ Abitur,1595963463030,match,162,female/ weiblich,bird,incongruent,y,deutsch,materials/images/bird_sparrow_2.jpg, ,materials/sounds/bird_owl.wav,Tue Jul 28 2020 20:50:24 GMT+0200 (Mitteleuropäische Sommerzeit),1595962224719,20.638516666666668,170,main;
1974,575,22,,correct,dog,label,Graduated High School/ Abitur,1595963463030,match,162,female/ weiblich,dog,label_correct,y,deutsch,materials/images/dog_labmix_2.jpg, ,materials/labels/dog_male.wav,Tue Jul 28 2020 20:50:24 GMT+0200 (Mitteleuropäische Sommerzeit),1595962224719,20.638516666666668,171,main;
1974,460,22,,correct,dog,sound,Graduated High School/ Abitur,1595963463030,match,162,female/ weiblich,dog,congruent,y,deutsch,materials/images/dog_labmix_1.jpg, ,materials/sounds/dog_labmix.wav,Tue Jul 28 2020 20:50:24 GMT+0200 (Mitteleuropäische Sommerzeit),1595962224719,20.638516666666668,172,main;
1974,618,22,,correct,bird,sound,Graduated High School/ Abitur,1595963463030,no match,162,female/ weiblich,phone,sound_incorrect,n,deutsch,materials/images/phone_rotary_2.jpg, ,materials/sounds/bird_sparrow.wav,Tue Jul 28 2020 20:50:24 GMT+0200 (Mitteleuropäische Sommerzeit),1595962224719,20.638516666666668,173,main;
1974,820,22,,correct,drum,label,Graduated High School/ Abitur,1595963463030,no match,162,female/ weiblich,guitar,label_incorrect,n,deutsch,materials/images/guitar_electric_1.jpg, ,materials/labels/drum_female.wav,Tue Jul 28 2020 20:50:24 GMT+0200 (Mitteleuropäische Sommerzeit),1595962224719,20.638516666666668,174,main;
1974,562,22,,correct,bird,sound,Graduated High School/ Abitur,1595963463030,match,162,female/ weiblich,bird,congruent,y,deutsch,materials/images/bird_sparrow_2.jpg, ,materials/sounds/bird_sparrow.wav,Tue Jul 28 2020 20:50:24 GMT+0200 (Mitteleuropäische Sommerzeit),1595962224719,20.638516666666668,175,main;
1974,470,22,,correct,motorcycle,sound,Graduated High School/ Abitur,1595963463030,no match,162,female/ weiblich,bird,sound_incorrect,n,deutsch,materials/images/bird_owl_2.jpg, ,materials/sounds/motorcycle_small.wav,Tue Jul 28 2020 20:50:24 GMT+0200 (Mitteleuropäische Sommerzeit),1595962224719,20.638516666666668,176,main;
1974,541,22,,correct,bird,sound,Graduated High School/ Abitur,1595963463030,no match,162,female/ weiblich,guitar,sound_incorrect,n,deutsch,materials/images/guitar_electric_2.jpg, ,materials/sounds/bird_sparrow.wav,Tue Jul 28 2020 20:50:24 GMT+0200 (Mitteleuropäische Sommerzeit),1595962224719,20.638516666666668,177,main;
1974,513,22,,correct,phone,label,Graduated High School/ Abitur,1595963463030,match,162,female/ weiblich,phone,label_correct,y,deutsch,materials/images/phone_rotary_2.jpg, ,materials/labels/phone_male.wav,Tue Jul 28 2020 20:50:24 GMT+0200 (Mitteleuropäische Sommerzeit),1595962224719,20.638516666666668,178,main;
1974,596,22,,correct,drum,sound,Graduated High School/ Abitur,1595963463030,match,162,female/ weiblich,drum,congruent,y,deutsch,materials/images/drum_kit_1.jpg, ,materials/sounds/drum_kit.wav,Tue Jul 28 2020 20:50:24 GMT+0200 (Mitteleuropäische Sommerzeit),1595962224719,20.638516666666668,179,main;
1974,643,22,,correct,motorcycle,sound,Graduated High School/ Abitur,1595963463030,match,162,female/ weiblich,motorcycle,incongruent,y,deutsch,materials/images/motorcycle_big_1.jpg, ,materials/sounds/motorcycle_small.wav,Tue Jul 28 2020 20:50:24 GMT+0200 (Mitteleuropäische Sommerzeit),1595962224719,20.638516666666668,180,main;
1974,443,22,,correct,motorcycle,label,Graduated High School/ Abitur,1595963463030,no match,162,female/ weiblich,dog,label_incorrect,n,deutsch,materials/images/dog_poodle_2.jpg, ,materials/labels/motorcycle_male.wav,Tue Jul 28 2020 20:50:24 GMT+0200 (Mitteleuropäische Sommerzeit),1595962224719,20.638516666666668,181,main;
1974,536,22,,correct,drum,sound,Graduated High School/ Abitur,1595963463030,no match,162,female/ weiblich,dog,sound_incorrect,n,deutsch,materials/images/dog_labmix_2.jpg, ,materials/sounds/drum_bongo.wav,Tue Jul 28 2020 20:50:24 GMT+0200 (Mitteleuropäische Sommerzeit),1595962224719,20.638516666666668,182,main;
1974,753,22,,correct,drum,sound,Graduated High School/ Abitur,1595963463030,no match,162,female/ weiblich,phone,sound_incorrect,n,deutsch,materials/images/phone_cell_2.jpg, ,materials/sounds/drum_kit.wav,Tue Jul 28 2020 20:50:24 GMT+0200 (Mitteleuropäische Sommerzeit),1595962224719,20.638516666666668,183,main;
1974,564,22,,correct,motorcycle,label,Graduated High School/ Abitur,1595963463030,match,162,female/ weiblich,motorcycle,label_correct,y,deutsch,materials/images/motorcycle_big_2.jpg, ,materials/labels/motorcycle_male.wav,Tue Jul 28 2020 20:50:24 GMT+0200 (Mitteleuropäische Sommerzeit),1595962224719,20.638516666666668,184,main;
1974,588,22,,correct,bird,label,Graduated High School/ Abitur,1595963463030,match,162,female/ weiblich,bird,label_correct,y,deutsch,materials/images/bird_owl_2.jpg, ,materials/labels/bird_female.wav,Tue Jul 28 2020 20:50:24 GMT+0200 (Mitteleuropäische Sommerzeit),1595962224719,20.638516666666668,185,main;
1974,954,22,,correct,drum,sound,Graduated High School/ Abitur,1595963463030,match,162,female/ weiblich,drum,congruent,y,deutsch,materials/images/drum_kit_2.jpg, ,materials/sounds/drum_kit.wav,Tue Jul 28 2020 20:50:24 GMT+0200 (Mitteleuropäische Sommerzeit),1595962224719,20.638516666666668,186,main;
1974,602,22,,correct,drum,label,Graduated High School/ Abitur,1595963463030,match,162,female/ weiblich,drum,label_correct,y,deutsch,materials/images/drum_kit_2.jpg, ,materials/labels/drum_female.wav,Tue Jul 28 2020 20:50:24 GMT+0200 (Mitteleuropäische Sommerzeit),1595962224719,20.638516666666668,187,main;
1974,480,22,,correct,dog,sound,Graduated High School/ Abitur,1595963463030,match,162,female/ weiblich,dog,incongruent,y,deutsch,materials/images/dog_labmix_2.jpg, ,materials/sounds/dog_poodle.wav,Tue Jul 28 2020 20:50:24 GMT+0200 (Mitteleuropäische Sommerzeit),1595962224719,20.638516666666668,188,main;
1974,883,22,,correct,motorcycle,sound,Graduated High School/ Abitur,1595963463030,match,162,female/ weiblich,motorcycle,incongruent,y,deutsch,materials/images/motorcycle_big_2.jpg, ,materials/sounds/motorcycle_small.wav,Tue Jul 28 2020 20:50:24 GMT+0200 (Mitteleuropäische Sommerzeit),1595962224719,20.638516666666668,189,main;
1974,581,22,,correct,drum,label,Graduated High School/ Abitur,1595963463030,no match,162,female/ weiblich,motorcycle,label_incorrect,n,deutsch,materials/images/motorcycle_big_2.jpg, ,materials/labels/drum_female.wav,Tue Jul 28 2020 20:50:24 GMT+0200 (Mitteleuropäische Sommerzeit),1595962224719,20.638516666666668,190,main;
1974,651,22,,correct,bird,label,Graduated High School/ Abitur,1595963463030,no match,162,female/ weiblich,phone,label_incorrect,n,deutsch,materials/images/phone_rotary_1.jpg, ,materials/labels/bird_male.wav,Tue Jul 28 2020 20:50:24 GMT+0200 (Mitteleuropäische Sommerzeit),1595962224719,20.638516666666668,191,main;
1974,450,22,,correct,bird,sound,Graduated High School/ Abitur,1595963463030,match,162,female/ weiblich,bird,incongruent,y,deutsch,materials/images/bird_owl_1.jpg, ,materials/sounds/bird_sparrow.wav,Tue Jul 28 2020 20:50:24 GMT+0200 (Mitteleuropäische Sommerzeit),1595962224719,20.638516666666668,192,main;
1972,2350,21,,correct,motorcycle,label,Graduated High School/ Abitur,1595957912532,no match,162,divers,bird,label_incorrect,n,German,materials/images/bird_sparrow_2.jpg, ,materials/labels/motorcycle_female.wav,Tue Jul 28 2020 19:25:26 GMT+0200 (Mitteleuropäische Sommerzeit),1595957126879,13.094216666666666,1,practice;
1972,1326,21,,correct,bird,label,Graduated High School/ Abitur,1595957912532,no match,162,divers,dog,label_incorrect,n,German,materials/images/dog_poodle_1.jpg, ,materials/labels/bird_female.wav,Tue Jul 28 2020 19:25:26 GMT+0200 (Mitteleuropäische Sommerzeit),1595957126879,13.094216666666666,2,practice;
1972,1951,21,,correct,bird,sound,Graduated High School/ Abitur,1595957912532,match,162,divers,bird,incongruent,y,German,materials/images/bird_sparrow_1.jpg, ,materials/sounds/bird_owl.wav,Tue Jul 28 2020 19:25:26 GMT+0200 (Mitteleuropäische Sommerzeit),1595957126879,13.094216666666666,3,practice;
1972,1344,21,,correct,bird,label,Graduated High School/ Abitur,1595957912532,match,162,divers,bird,label_correct,y,German,materials/images/bird_owl_1.jpg, ,materials/labels/bird_female.wav,Tue Jul 28 2020 19:25:26 GMT+0200 (Mitteleuropäische Sommerzeit),1595957126879,13.094216666666666,4,practice;
1972,1246,21,,correct,bird,sound,Graduated High School/ Abitur,1595957912532,match,162,divers,bird,congruent,y,German,materials/images/bird_owl_1.jpg, ,materials/sounds/bird_owl.wav,Tue Jul 28 2020 19:25:26 GMT+0200 (Mitteleuropäische Sommerzeit),1595957126879,13.094216666666666,5,practice;
1972,911,21,,incorrect,motorcycle,sound,Graduated High School/ Abitur,1595957912532,no match,162,divers,bird,sound_incorrect,y,German,materials/images/bird_owl_1.jpg, ,materials/sounds/motorcycle_big.wav,Tue Jul 28 2020 19:25:26 GMT+0200 (Mitteleuropäische Sommerzeit),1595957126879,13.094216666666666,6,practice;
1972,1933,21,,correct,dog,sound,Graduated High School/ Abitur,1595957912532,match,162,divers,dog,incongruent,y,German,materials/images/dog_labmix_1.jpg, ,materials/sounds/dog_poodle.wav,Tue Jul 28 2020 19:25:26 GMT+0200 (Mitteleuropäische Sommerzeit),1595957126879,13.094216666666666,1,main;
1972,1550,21,,correct,motorcycle,label,Graduated High School/ Abitur,1595957912532,no match,162,divers,drum,label_incorrect,n,German,materials/images/drum_kit_1.jpg, ,materials/labels/motorcycle_male.wav,Tue Jul 28 2020 19:25:26 GMT+0200 (Mitteleuropäische Sommerzeit),1595957126879,13.094216666666666,2,main;
1972,1249,21,,correct,bird,label,Graduated High School/ Abitur,1595957912532,no match,162,divers,guitar,label_incorrect,n,German,materials/images/guitar_electric_2.jpg, ,materials/labels/bird_male.wav,Tue Jul 28 2020 19:25:26 GMT+0200 (Mitteleuropäische Sommerzeit),1595957126879,13.094216666666666,3,main;
1972,799,21,,correct,dog,sound,Graduated High School/ Abitur,1595957912532,match,162,divers,dog,congruent,y,German,materials/images/dog_labmix_1.jpg, ,materials/sounds/dog_labmix.wav,Tue Jul 28 2020 19:25:26 GMT+0200 (Mitteleuropäische Sommerzeit),1595957126879,13.094216666666666,4,main;
1972,1262,21,,correct,motorcycle,label,Graduated High School/ Abitur,1595957912532,match,162,divers,motorcycle,label_correct,y,German,materials/images/motorcycle_big_2.jpg, ,materials/labels/motorcycle_female.wav,Tue Jul 28 2020 19:25:26 GMT+0200 (Mitteleuropäische Sommerzeit),1595957126879,13.094216666666666,5,main;
1972,690,21,,correct,motorcycle,sound,Graduated High School/ Abitur,1595957912532,match,162,divers,motorcycle,congruent,y,German,materials/images/motorcycle_big_1.jpg, ,materials/sounds/motorcycle_big.wav,Tue Jul 28 2020 19:25:26 GMT+0200 (Mitteleuropäische Sommerzeit),1595957126879,13.094216666666666,6,main;
1972,1024,21,,correct,drum,sound,Graduated High School/ Abitur,1595957912532,no match,162,divers,phone,sound_incorrect,n,German,materials/images/phone_rotary_1.jpg, ,materials/sounds/drum_kit.wav,Tue Jul 28 2020 19:25:26 GMT+0200 (Mitteleuropäische Sommerzeit),1595957126879,13.094216666666666,7,main;
1972,1070,21,,correct,guitar,label,Graduated High School/ Abitur,1595957912532,match,162,divers,guitar,label_correct,y,German,materials/images/guitar_electric_1.jpg, ,materials/labels/guitar_male.wav,Tue Jul 28 2020 19:25:26 GMT+0200 (Mitteleuropäische Sommerzeit),1595957126879,13.094216666666666,8,main;
1972,2082,21,,correct,bird,sound,Graduated High School/ Abitur,1595957912532,no match,162,divers,phone,sound_incorrect,n,German,materials/images/phone_cell_2.jpg, ,materials/sounds/bird_owl.wav,Tue Jul 28 2020 19:25:26 GMT+0200 (Mitteleuropäische Sommerzeit),1595957126879,13.094216666666666,9,main;
1972,1039,21,,correct,phone,sound,Graduated High School/ Abitur,1595957912532,no match,162,divers,drum,sound_incorrect,n,German,materials/images/drum_bongo_2.jpg, ,materials/sounds/phone_cell.wav,Tue Jul 28 2020 19:25:26 GMT+0200 (Mitteleuropäische Sommerzeit),1595957126879,13.094216666666666,10,main;
1972,896,21,,correct,motorcycle,label,Graduated High School/ Abitur,1595957912532,no match,162,divers,phone,label_incorrect,n,German,materials/images/phone_cell_1.jpg, ,materials/labels/motorcycle_female.wav,Tue Jul 28 2020 19:25:26 GMT+0200 (Mitteleuropäische Sommerzeit),1595957126879,13.094216666666666,11,main;
1972,942,21,,correct,motorcycle,label,Graduated High School/ Abitur,1595957912532,no match,162,divers,dog,label_incorrect,n,German,materials/images/dog_labmix_2.jpg, ,materials/labels/motorcycle_female.wav,Tue Jul 28 2020 19:25:26 GMT+0200 (Mitteleuropäische Sommerzeit),1595957126879,13.094216666666666,12,main;
1972,1198,21,,correct,guitar,label,Graduated High School/ Abitur,1595957912532,match,162,divers,guitar,label_correct,y,German,materials/images/guitar_acoustic_1.jpg, ,materials/labels/guitar_male.wav,Tue Jul 28 2020 19:25:26 GMT+0200 (Mitteleuropäische Sommerzeit),1595957126879,13.094216666666666,13,main;
1972,705,21,,correct,bird,label,Graduated High School/ Abitur,1595957912532,match,162,divers,bird,label_correct,y,German,materials/images/bird_sparrow_2.jpg, ,materials/labels/bird_male.wav,Tue Jul 28 2020 19:25:26 GMT+0200 (Mitteleuropäische Sommerzeit),1595957126879,13.094216666666666,14,main;
1972,961,21,,correct,motorcycle,label,Graduated High School/ Abitur,1595957912532,no match,162,divers,drum,label_incorrect,n,German,materials/images/drum_kit_2.jpg, ,materials/labels/motorcycle_male.wav,Tue Jul 28 2020 19:25:26 GMT+0200 (Mitteleuropäische Sommerzeit),1595957126879,13.094216666666666,15,main;
1972,768,21,,correct,motorcycle,sound,Graduated High School/ Abitur,1595957912532,match,162,divers,motorcycle,congruent,y,German,materials/images/motorcycle_big_2.jpg, ,materials/sounds/motorcycle_big.wav,Tue Jul 28 2020 19:25:26 GMT+0200 (Mitteleuropäische Sommerzeit),1595957126879,13.094216666666666,16,main;
1972,672,21,,correct,motorcycle,label,Graduated High School/ Abitur,1595957912532,no match,162,divers,guitar,label_incorrect,n,German,materials/images/guitar_acoustic_1.jpg, ,materials/labels/motorcycle_female.wav,Tue Jul 28 2020 19:25:26 GMT+0200 (Mitteleuropäische Sommerzeit),1595957126879,13.094216666666666,17,main;
1972,879,21,,correct,dog,label,Graduated High School/ Abitur,1595957912532,match,162,divers,dog,label_correct,y,German,materials/images/dog_labmix_2.jpg, ,materials/labels/dog_male.wav,Tue Jul 28 2020 19:25:26 GMT+0200 (Mitteleuropäische Sommerzeit),1595957126879,13.094216666666666,18,main;
1972,1217,21,,correct,bird,label,Graduated High School/ Abitur,1595957912532,no match,162,divers,guitar,label_incorrect,n,German,materials/images/guitar_electric_1.jpg, ,materials/labels/bird_male.wav,Tue Jul 28 2020 19:25:26 GMT+0200 (Mitteleuropäische Sommerzeit),1595957126879,13.094216666666666,19,main;
1972,1072,21,,correct,dog,label,Graduated High School/ Abitur,1595957912532,match,162,divers,dog,label_correct,y,German,materials/images/dog_poodle_1.jpg, ,materials/labels/dog_female.wav,Tue Jul 28 2020 19:25:26 GMT+0200 (Mitteleuropäische Sommerzeit),1595957126879,13.094216666666666,20,main;
1972,1265,21,,correct,drum,label,Graduated High School/ Abitur,1595957912532,match,162,divers,drum,label_correct,y,German,materials/images/drum_bongo_1.jpg, ,materials/labels/drum_female.wav,Tue Jul 28 2020 19:25:26 GMT+0200 (Mitteleuropäische Sommerzeit),1595957126879,13.094216666666666,21,main;
1972,976,21,,correct,motorcycle,label,Graduated High School/ Abitur,1595957912532,no match,162,divers,drum,label_incorrect,n,German,materials/images/drum_bongo_1.jpg, ,materials/labels/motorcycle_male.wav,Tue Jul 28 2020 19:25:26 GMT+0200 (Mitteleuropäische Sommerzeit),1595957126879,13.094216666666666,22,main;
1972,882,21,,correct,bird,sound,Graduated High School/ Abitur,1595957912532,no match,162,divers,dog,sound_incorrect,n,German,materials/images/dog_labmix_2.jpg, ,materials/sounds/bird_owl.wav,Tue Jul 28 2020 19:25:26 GMT+0200 (Mitteleuropäische Sommerzeit),1595957126879,13.094216666666666,23,main;
1972,926,21,,correct,guitar,label,Graduated High School/ Abitur,1595957912532,match,162,divers,guitar,label_correct,y,German,materials/images/guitar_acoustic_1.jpg, ,materials/labels/guitar_female.wav,Tue Jul 28 2020 19:25:26 GMT+0200 (Mitteleuropäische Sommerzeit),1595957126879,13.094216666666666,24,main;
1972,898,21,,correct,motorcycle,label,Graduated High School/ Abitur,1595957912532,no match,162,divers,dog,label_incorrect,n,German,materials/images/dog_labmix_2.jpg, ,materials/labels/motorcycle_male.wav,Tue Jul 28 2020 19:25:26 GMT+0200 (Mitteleuropäische Sommerzeit),1595957126879,13.094216666666666,25,main;
1972,1361,21,,correct,phone,label,Graduated High School/ Abitur,1595957912532,match,162,divers,phone,label_correct,y,German,materials/images/phone_cell_2.jpg, ,materials/labels/phone_male.wav,Tue Jul 28 2020 19:25:26 GMT+0200 (Mitteleuropäische Sommerzeit),1595957126879,13.094216666666666,26,main;
1972,1361,21,,correct,motorcycle,sound,Graduated High School/ Abitur,1595957912532,match,162,divers,motorcycle,congruent,y,German,materials/images/motorcycle_small_1.jpg, ,materials/sounds/motorcycle_small.wav,Tue Jul 28 2020 19:25:26 GMT+0200 (Mitteleuropäische Sommerzeit),1595957126879,13.094216666666666,27,main;
1972,943,21,,correct,drum,sound,Graduated High School/ Abitur,1595957912532,match,162,divers,drum,incongruent,y,German,materials/images/drum_bongo_1.jpg, ,materials/sounds/drum_kit.wav,Tue Jul 28 2020 19:25:26 GMT+0200 (Mitteleuropäische Sommerzeit),1595957126879,13.094216666666666,28,main;
1972,640,21,,correct,bird,sound,Graduated High School/ Abitur,1595957912532,match,162,divers,bird,congruent,y,German,materials/images/bird_sparrow_2.jpg, ,materials/sounds/bird_sparrow.wav,Tue Jul 28 2020 19:25:26 GMT+0200 (Mitteleuropäische Sommerzeit),1595957126879,13.094216666666666,29,main;
1972,607,21,,correct,guitar,sound,Graduated High School/ Abitur,1595957912532,match,162,divers,guitar,incongruent,y,German,materials/images/guitar_electric_2.jpg, ,materials/sounds/guitar_acoustic.wav,Tue Jul 28 2020 19:25:26 GMT+0200 (Mitteleuropäische Sommerzeit),1595957126879,13.094216666666666,30,main;
1972,784,21,,correct,dog,sound,Graduated High School/ Abitur,1595957912532,no match,162,divers,guitar,sound_incorrect,n,German,materials/images/guitar_acoustic_1.jpg, ,materials/sounds/dog_poodle.wav,Tue Jul 28 2020 19:25:26 GMT+0200 (Mitteleuropäische Sommerzeit),1595957126879,13.094216666666666,31,main;
1972,1088,21,,correct,drum,sound,Graduated High School/ Abitur,1595957912532,no match,162,divers,phone,sound_incorrect,n,German,materials/images/phone_rotary_2.jpg, ,materials/sounds/drum_kit.wav,Tue Jul 28 2020 19:25:26 GMT+0200 (Mitteleuropäische Sommerzeit),1595957126879,13.094216666666666,32,main;
1972,543,21,,correct,drum,sound,Graduated High School/ Abitur,1595957912532,match,162,divers,drum,congruent,y,German,materials/images/drum_bongo_2.jpg, ,materials/sounds/drum_bongo.wav,Tue Jul 28 2020 19:25:26 GMT+0200 (Mitteleuropäische Sommerzeit),1595957126879,13.094216666666666,33,main;
1972,531,21,,correct,dog,label,Graduated High School/ Abitur,1595957912532,match,162,divers,dog,label_correct,y,German,materials/images/dog_poodle_1.jpg, ,materials/labels/dog_male.wav,Tue Jul 28 2020 19:25:26 GMT+0200 (Mitteleuropäische Sommerzeit),1595957126879,13.094216666666666,34,main;
1972,608,21,,correct,bird,label,Graduated High School/ Abitur,1595957912532,no match,162,divers,phone,label_incorrect,n,German,materials/images/phone_cell_2.jpg, ,materials/labels/bird_female.wav,Tue Jul 28 2020 19:25:26 GMT+0200 (Mitteleuropäische Sommerzeit),1595957126879,13.094216666666666,35,main;
1972,799,21,,correct,bird,label,Graduated High School/ Abitur,1595957912532,match,162,divers,bird,label_correct,y,German,materials/images/bird_sparrow_1.jpg, ,materials/labels/bird_male.wav,Tue Jul 28 2020 19:25:26 GMT+0200 (Mitteleuropäische Sommerzeit),1595957126879,13.094216666666666,36,main;
1972,527,21,,correct,dog,label,Graduated High School/ Abitur,1595957912532,match,162,divers,dog,label_correct,y,German,materials/images/dog_labmix_1.jpg, ,materials/labels/dog_male.wav,Tue Jul 28 2020 19:25:26 GMT+0200 (Mitteleuropäische Sommerzeit),1595957126879,13.094216666666666,37,main;
1972,1056,21,,correct,drum,sound,Graduated High School/ Abitur,1595957912532,match,162,divers,drum,incongruent,y,German,materials/images/drum_bongo_2.jpg, ,materials/sounds/drum_kit.wav,Tue Jul 28 2020 19:25:26 GMT+0200 (Mitteleuropäische Sommerzeit),1595957126879,13.094216666666666,38,main;
1972,704,21,,correct,phone,sound,Graduated High School/ Abitur,1595957912532,match,162,divers,phone,incongruent,y,German,materials/images/phone_rotary_1.jpg, ,materials/sounds/phone_cell.wav,Tue Jul 28 2020 19:25:26 GMT+0200 (Mitteleuropäische Sommerzeit),1595957126879,13.094216666666666,39,main;
1972,1009,21,,incorrect,motorcycle,sound,Graduated High School/ Abitur,1595957912532,match,162,divers,motorcycle,incongruent,n,German,materials/images/motorcycle_big_2.jpg, ,materials/sounds/motorcycle_small.wav,Tue Jul 28 2020 19:25:26 GMT+0200 (Mitteleuropäische Sommerzeit),1595957126879,13.094216666666666,40,main;
1972,832,21,,correct,motorcycle,label,Graduated High School/ Abitur,1595957912532,no match,162,divers,bird,label_incorrect,n,German,materials/images/bird_sparrow_1.jpg, ,materials/labels/motorcycle_male.wav,Tue Jul 28 2020 19:25:26 GMT+0200 (Mitteleuropäische Sommerzeit),1595957126879,13.094216666666666,41,main;
1972,782,21,,correct,guitar,label,Graduated High School/ Abitur,1595957912532,match,162,divers,guitar,label_correct,y,German,materials/images/guitar_acoustic_2.jpg, ,materials/labels/guitar_male.wav,Tue Jul 28 2020 19:25:26 GMT+0200 (Mitteleuropäische Sommerzeit),1595957126879,13.094216666666666,42,main;
1972,691,21,,correct,guitar,sound,Graduated High School/ Abitur,1595957912532,match,162,divers,guitar,congruent,y,German,materials/images/guitar_acoustic_2.jpg, ,materials/sounds/guitar_acoustic.wav,Tue Jul 28 2020 19:25:26 GMT+0200 (Mitteleuropäische Sommerzeit),1595957126879,13.094216666666666,43,main;
1972,640,21,,correct,bird,label,Graduated High School/ Abitur,1595957912532,no match,162,divers,phone,label_incorrect,n,German,materials/images/phone_cell_1.jpg, ,materials/labels/bird_male.wav,Tue Jul 28 2020 19:25:26 GMT+0200 (Mitteleuropäische Sommerzeit),1595957126879,13.094216666666666,44,main;
1972,879,21,,incorrect,motorcycle,sound,Graduated High School/ Abitur,1595957912532,match,162,divers,motorcycle,congruent,n,German,materials/images/motorcycle_small_2.jpg, ,materials/sounds/motorcycle_small.wav,Tue Jul 28 2020 19:25:26 GMT+0200 (Mitteleuropäische Sommerzeit),1595957126879,13.094216666666666,45,main;
1972,833,21,,correct,phone,sound,Graduated High School/ Abitur,1595957912532,no match,162,divers,drum,sound_incorrect,n,German,materials/images/drum_kit_2.jpg, ,materials/sounds/phone_cell.wav,Tue Jul 28 2020 19:25:26 GMT+0200 (Mitteleuropäische Sommerzeit),1595957126879,13.094216666666666,46,main;
1972,785,21,,correct,motorcycle,label,Graduated High School/ Abitur,1595957912532,no match,162,divers,guitar,label_incorrect,n,German,materials/images/guitar_acoustic_2.jpg, ,materials/labels/motorcycle_female.wav,Tue Jul 28 2020 19:25:26 GMT+0200 (Mitteleuropäische Sommerzeit),1595957126879,13.094216666666666,47,main;
1972,590,21,,correct,dog,sound,Graduated High School/ Abitur,1595957912532,no match,162,divers,guitar,sound_incorrect,n,German,materials/images/guitar_electric_2.jpg, ,materials/sounds/dog_poodle.wav,Tue Jul 28 2020 19:25:26 GMT+0200 (Mitteleuropäische Sommerzeit),1595957126879,13.094216666666666,48,main;
1972,484,21,,incorrect,drum,label,Graduated High School/ Abitur,1595957912532,match,162,divers,drum,label_correct,n,German,materials/images/drum_kit_2.jpg, ,materials/labels/drum_male.wav,Tue Jul 28 2020 19:25:26 GMT+0200 (Mitteleuropäische Sommerzeit),1595957126879,13.094216666666666,49,main;
1972,1008,21,,correct,motorcycle,label,Graduated High School/ Abitur,1595957912532,match,162,divers,motorcycle,label_correct,y,German,materials/images/motorcycle_big_1.jpg, ,materials/labels/motorcycle_female.wav,Tue Jul 28 2020 19:25:26 GMT+0200 (Mitteleuropäische Sommerzeit),1595957126879,13.094216666666666,50,main;
1972,526,21,,correct,drum,label,Graduated High School/ Abitur,1595957912532,match,162,divers,drum,label_correct,y,German,materials/images/drum_kit_1.jpg, ,materials/labels/drum_male.wav,Tue Jul 28 2020 19:25:26 GMT+0200 (Mitteleuropäische Sommerzeit),1595957126879,13.094216666666666,51,main;
1972,515,21,,correct,bird,sound,Graduated High School/ Abitur,1595957912532,match,162,divers,bird,congruent,y,German,materials/images/bird_owl_2.jpg, ,materials/sounds/bird_owl.wav,Tue Jul 28 2020 19:25:26 GMT+0200 (Mitteleuropäische Sommerzeit),1595957126879,13.094216666666666,52,main;
1972,513,21,,correct,drum,sound,Graduated High School/ Abitur,1595957912532,match,162,divers,drum,congruent,y,German,materials/images/drum_kit_2.jpg, ,materials/sounds/drum_kit.wav,Tue Jul 28 2020 19:25:26 GMT+0200 (Mitteleuropäische Sommerzeit),1595957126879,13.094216666666666,53,main;
1972,625,21,,correct,bird,sound,Graduated High School/ Abitur,1595957912532,match,162,divers,bird,incongruent,y,German,materials/images/bird_sparrow_1.jpg, ,materials/sounds/bird_owl.wav,Tue Jul 28 2020 19:25:26 GMT+0200 (Mitteleuropäische Sommerzeit),1595957126879,13.094216666666666,54,main;
1972,687,21,,correct,motorcycle,label,Graduated High School/ Abitur,1595957912532,no match,162,divers,dog,label_incorrect,n,German,materials/images/dog_poodle_1.jpg, ,materials/labels/motorcycle_female.wav,Tue Jul 28 2020 19:25:26 GMT+0200 (Mitteleuropäische Sommerzeit),1595957126879,13.094216666666666,55,main;
1972,625,21,,correct,bird,label,Graduated High School/ Abitur,1595957912532,match,162,divers,bird,label_correct,y,German,materials/images/bird_owl_2.jpg, ,materials/labels/bird_female.wav,Tue Jul 28 2020 19:25:26 GMT+0200 (Mitteleuropäische Sommerzeit),1595957126879,13.094216666666666,56,main;
1972,543,21,,correct,guitar,label,Graduated High School/ Abitur,1595957912532,match,162,divers,guitar,label_correct,y,German,materials/images/guitar_electric_2.jpg, ,materials/labels/guitar_female.wav,Tue Jul 28 2020 19:25:26 GMT+0200 (Mitteleuropäische Sommerzeit),1595957126879,13.094216666666666,57,main;
1972,832,21,,correct,motorcycle,sound,Graduated High School/ Abitur,1595957912532,no match,162,divers,bird,sound_incorrect,n,German,materials/images/bird_sparrow_2.jpg, ,materials/sounds/motorcycle_big.wav,Tue Jul 28 2020 19:25:26 GMT+0200 (Mitteleuropäische Sommerzeit),1595957126879,13.094216666666666,58,main;
1972,574,21,,correct,phone,label,Graduated High School/ Abitur,1595957912532,match,162,divers,phone,label_correct,y,German,materials/images/phone_rotary_2.jpg, ,materials/labels/phone_male.wav,Tue Jul 28 2020 19:25:26 GMT+0200 (Mitteleuropäische Sommerzeit),1595957126879,13.094216666666666,59,main;
1972,577,21,,correct,bird,label,Graduated High School/ Abitur,1595957912532,match,162,divers,bird,label_correct,y,German,materials/images/bird_owl_2.jpg, ,materials/labels/bird_male.wav,Tue Jul 28 2020 19:25:26 GMT+0200 (Mitteleuropäische Sommerzeit),1595957126879,13.094216666666666,60,main;
1972,818,21,,correct,bird,label,Graduated High School/ Abitur,1595957912532,no match,162,divers,dog,label_incorrect,n,German,materials/images/dog_poodle_2.jpg, ,materials/labels/bird_female.wav,Tue Jul 28 2020 19:25:26 GMT+0200 (Mitteleuropäische Sommerzeit),1595957126879,13.094216666666666,61,main;
1972,511,21,,correct,dog,label,Graduated High School/ Abitur,1595957912532,match,162,divers,dog,label_correct,y,German,materials/images/dog_labmix_2.jpg, ,materials/labels/dog_female.wav,Tue Jul 28 2020 19:25:26 GMT+0200 (Mitteleuropäische Sommerzeit),1595957126879,13.094216666666666,62,main;
1972,498,21,,correct,dog,sound,Graduated High School/ Abitur,1595957912532,match,162,divers,dog,incongruent,y,German,materials/images/dog_poodle_1.jpg, ,materials/sounds/dog_labmix.wav,Tue Jul 28 2020 19:25:26 GMT+0200 (Mitteleuropäische Sommerzeit),1595957126879,13.094216666666666,63,main;
1972,591,21,,correct,phone,sound,Graduated High School/ Abitur,1595957912532,match,162,divers,phone,incongruent,y,German,materials/images/phone_cell_1.jpg, ,materials/sounds/phone_rotary.wav,Tue Jul 28 2020 19:25:26 GMT+0200 (Mitteleuropäische Sommerzeit),1595957126879,13.094216666666666,64,main;
1972,609,21,,correct,bird,label,Graduated High School/ Abitur,1595957912532,no match,162,divers,phone,label_incorrect,n,German,materials/images/phone_rotary_2.jpg, ,materials/labels/bird_female.wav,Tue Jul 28 2020 19:25:26 GMT+0200 (Mitteleuropäische Sommerzeit),1595957126879,13.094216666666666,65,main;
1972,704,21,,correct,drum,sound,Graduated High School/ Abitur,1595957912532,no match,162,divers,guitar,sound_incorrect,n,German,materials/images/guitar_acoustic_1.jpg, ,materials/sounds/drum_kit.wav,Tue Jul 28 2020 19:25:26 GMT+0200 (Mitteleuropäische Sommerzeit),1595957126879,13.094216666666666,66,main;
1972,800,21,,correct,motorcycle,label,Graduated High School/ Abitur,1595957912532,no match,162,divers,guitar,label_incorrect,n,German,materials/images/guitar_electric_1.jpg, ,materials/labels/motorcycle_female.wav,Tue Jul 28 2020 19:25:26 GMT+0200 (Mitteleuropäische Sommerzeit),1595957126879,13.094216666666666,67,main;
1972,753,21,,correct,drum,sound,Graduated High School/ Abitur,1595957912532,match,162,divers,drum,congruent,y,German,materials/images/drum_kit_1.jpg, ,materials/sounds/drum_kit.wav,Tue Jul 28 2020 19:25:26 GMT+0200 (Mitteleuropäische Sommerzeit),1595957126879,13.094216666666666,68,main;
1972,657,21,,correct,drum,sound,Graduated High School/ Abitur,1595957912532,no match,162,divers,dog,sound_incorrect,n,German,materials/images/dog_poodle_2.jpg, ,materials/sounds/drum_kit.wav,Tue Jul 28 2020 19:25:26 GMT+0200 (Mitteleuropäische Sommerzeit),1595957126879,13.094216666666666,69,main;
1972,1101,21,,correct,bird,label,Graduated High School/ Abitur,1595957912532,match,162,divers,bird,label_correct,y,German,materials/images/bird_sparrow_2.jpg, ,materials/labels/bird_female.wav,Tue Jul 28 2020 19:25:26 GMT+0200 (Mitteleuropäische Sommerzeit),1595957126879,13.094216666666666,70,main;
1972,529,21,,correct,bird,label,Graduated High School/ Abitur,1595957912532,no match,162,divers,phone,label_incorrect,n,German,materials/images/phone_cell_2.jpg, ,materials/labels/bird_male.wav,Tue Jul 28 2020 19:25:26 GMT+0200 (Mitteleuropäische Sommerzeit),1595957126879,13.094216666666666,71,main;
1972,833,21,,incorrect,phone,sound,Graduated High School/ Abitur,1595957912532,no match,162,divers,bird,sound_incorrect,y,German,materials/images/bird_sparrow_1.jpg, ,materials/sounds/phone_cell.wav,Tue Jul 28 2020 19:25:26 GMT+0200 (Mitteleuropäische Sommerzeit),1595957126879,13.094216666666666,72,main;
1972,498,21,,correct,dog,sound,Graduated High School/ Abitur,1595957912532,no match,162,divers,guitar,sound_incorrect,n,German,materials/images/guitar_electric_1.jpg, ,materials/sounds/dog_poodle.wav,Tue Jul 28 2020 19:25:26 GMT+0200 (Mitteleuropäische Sommerzeit),1595957126879,13.094216666666666,73,main;
1972,656,21,,correct,motorcycle,label,Graduated High School/ Abitur,1595957912532,no match,162,divers,dog,label_incorrect,n,German,materials/images/dog_labmix_1.jpg, ,materials/labels/motorcycle_male.wav,Tue Jul 28 2020 19:25:26 GMT+0200 (Mitteleuropäische Sommerzeit),1595957126879,13.094216666666666,74,main;
1972,736,21,,incorrect,phone,sound,Graduated High School/ Abitur,1595957912532,no match,162,divers,motorcycle,sound_incorrect,y,German,materials/images/motorcycle_big_2.jpg, ,materials/sounds/phone_cell.wav,Tue Jul 28 2020 19:25:26 GMT+0200 (Mitteleuropäische Sommerzeit),1595957126879,13.094216666666666,75,main;
1972,704,21,,correct,drum,sound,Graduated High School/ Abitur,1595957912532,no match,162,divers,phone,sound_incorrect,n,German,materials/images/phone_cell_1.jpg, ,materials/sounds/drum_kit.wav,Tue Jul 28 2020 19:25:26 GMT+0200 (Mitteleuropäische Sommerzeit),1595957126879,13.094216666666666,76,main;
1972,1535,21,,correct,phone,label,Graduated High School/ Abitur,1595957912532,match,162,divers,phone,label_correct,y,German,materials/images/phone_cell_1.jpg, ,materials/labels/phone_male.wav,Tue Jul 28 2020 19:25:26 GMT+0200 (Mitteleuropäische Sommerzeit),1595957126879,13.094216666666666,77,main;
1972,833,21,,correct,motorcycle,label,Graduated High School/ Abitur,1595957912532,no match,162,divers,dog,label_incorrect,n,German,materials/images/dog_poodle_2.jpg, ,materials/labels/motorcycle_female.wav,Tue Jul 28 2020 19:25:26 GMT+0200 (Mitteleuropäische Sommerzeit),1595957126879,13.094216666666666,78,main;
1972,478,21,,correct,bird,label,Graduated High School/ Abitur,1595957912532,match,162,divers,bird,label_correct,y,German,materials/images/bird_sparrow_1.jpg, ,materials/labels/bird_female.wav,Tue Jul 28 2020 19:25:26 GMT+0200 (Mitteleuropäische Sommerzeit),1595957126879,13.094216666666666,79,main;
1972,545,21,,correct,bird,label,Graduated High School/ Abitur,1595957912532,no match,162,divers,motorcycle,label_incorrect,n,German,materials/images/motorcycle_big_1.jpg, ,materials/labels/bird_male.wav,Tue Jul 28 2020 19:25:26 GMT+0200 (Mitteleuropäische Sommerzeit),1595957126879,13.094216666666666,80,main;
1972,674,21,,correct,guitar,sound,Graduated High School/ Abitur,1595957912532,match,162,divers,guitar,incongruent,y,German,materials/images/guitar_acoustic_1.jpg, ,materials/sounds/guitar_electric.wav,Tue Jul 28 2020 19:25:26 GMT+0200 (Mitteleuropäische Sommerzeit),1595957126879,13.094216666666666,81,main;
1972,560,21,,correct,bird,sound,Graduated High School/ Abitur,1595957912532,no match,162,divers,motorcycle,sound_incorrect,n,German,materials/images/motorcycle_small_2.jpg, ,materials/sounds/bird_sparrow.wav,Tue Jul 28 2020 19:25:26 GMT+0200 (Mitteleuropäische Sommerzeit),1595957126879,13.094216666666666,82,main;
1972,625,21,,correct,dog,label,Graduated High School/ Abitur,1595957912532,match,162,divers,dog,label_correct,y,German,materials/images/dog_poodle_2.jpg, ,materials/labels/dog_male.wav,Tue Jul 28 2020 19:25:26 GMT+0200 (Mitteleuropäische Sommerzeit),1595957126879,13.094216666666666,83,main;
1972,544,21,,correct,phone,label,Graduated High School/ Abitur,1595957912532,match,162,divers,phone,label_correct,y,German,materials/images/phone_rotary_1.jpg, ,materials/labels/phone_female.wav,Tue Jul 28 2020 19:25:26 GMT+0200 (Mitteleuropäische Sommerzeit),1595957126879,13.094216666666666,84,main;
1972,639,21,,correct,motorcycle,label,Graduated High School/ Abitur,1595957912532,no match,162,divers,drum,label_incorrect,n,German,materials/images/drum_bongo_1.jpg, ,materials/labels/motorcycle_female.wav,Tue Jul 28 2020 19:25:26 GMT+0200 (Mitteleuropäische Sommerzeit),1595957126879,13.094216666666666,85,main;
1972,914,21,,correct,motorcycle,sound,Graduated High School/ Abitur,1595957912532,match,162,divers,motorcycle,incongruent,y,German,materials/images/motorcycle_big_1.jpg, ,materials/sounds/motorcycle_small.wav,Tue Jul 28 2020 19:25:26 GMT+0200 (Mitteleuropäische Sommerzeit),1595957126879,13.094216666666666,86,main;
1972,942,21,,correct,bird,label,Graduated High School/ Abitur,1595957912532,no match,162,divers,dog,label_incorrect,n,German,materials/images/dog_labmix_2.jpg, ,materials/labels/bird_female.wav,Tue Jul 28 2020 19:25:26 GMT+0200 (Mitteleuropäische Sommerzeit),1595957126879,13.094216666666666,87,main;
1972,657,21,,correct,phone,sound,Graduated High School/ Abitur,1595957912532,no match,162,divers,dog,sound_incorrect,n,German,materials/images/dog_poodle_1.jpg, ,materials/sounds/phone_cell.wav,Tue Jul 28 2020 19:25:26 GMT+0200 (Mitteleuropäische Sommerzeit),1595957126879,13.094216666666666,88,main;
1972,545,21,,correct,dog,sound,Graduated High School/ Abitur,1595957912532,no match,162,divers,motorcycle,sound_incorrect,n,German,materials/images/motorcycle_big_1.jpg, ,materials/sounds/dog_poodle.wav,Tue Jul 28 2020 19:25:26 GMT+0200 (Mitteleuropäische Sommerzeit),1595957126879,13.094216666666666,89,main;
1972,625,21,,correct,phone,sound,Graduated High School/ Abitur,1595957912532,no match,162,divers,motorcycle,sound_incorrect,n,German,materials/images/motorcycle_small_1.jpg, ,materials/sounds/phone_cell.wav,Tue Jul 28 2020 19:25:26 GMT+0200 (Mitteleuropäische Sommerzeit),1595957126879,13.094216666666666,90,main;
1972,512,21,,correct,bird,label,Graduated High School/ Abitur,1595957912532,no match,162,divers,motorcycle,label_incorrect,n,German,materials/images/motorcycle_big_2.jpg, ,materials/labels/bird_male.wav,Tue Jul 28 2020 19:25:26 GMT+0200 (Mitteleuropäische Sommerzeit),1595957126879,13.094216666666666,91,main;
1972,624,21,,correct,phone,label,Graduated High School/ Abitur,1595957912532,match,162,divers,phone,label_correct,y,German,materials/images/phone_rotary_2.jpg, ,materials/labels/phone_female.wav,Tue Jul 28 2020 19:25:26 GMT+0200 (Mitteleuropäische Sommerzeit),1595957126879,13.094216666666666,92,main;
1972,526,21,,correct,motorcycle,label,Graduated High School/ Abitur,1595957912532,match,162,divers,motorcycle,label_correct,y,German,materials/images/motorcycle_big_2.jpg, ,materials/labels/motorcycle_male.wav,Tue Jul 28 2020 19:25:26 GMT+0200 (Mitteleuropäische Sommerzeit),1595957126879,13.094216666666666,93,main;
1972,431,21,,correct,guitar,label,Graduated High School/ Abitur,1595957912532,match,162,divers,guitar,label_correct,y,German,materials/images/guitar_electric_2.jpg, ,materials/labels/guitar_male.wav,Tue Jul 28 2020 19:25:26 GMT+0200 (Mitteleuropäische Sommerzeit),1595957126879,13.094216666666666,94,main;
1972,547,21,,correct,motorcycle,sound,Graduated High School/ Abitur,1595957912532,no match,162,divers,bird,sound_incorrect,n,German,materials/images/bird_sparrow_1.jpg, ,materials/sounds/motorcycle_big.wav,Tue Jul 28 2020 19:25:26 GMT+0200 (Mitteleuropäische Sommerzeit),1595957126879,13.094216666666666,95,main;
1972,704,21,,correct,phone,label,Graduated High School/ Abitur,1595957912532,match,162,divers,phone,label_correct,y,German,materials/images/phone_cell_2.jpg, ,materials/labels/phone_female.wav,Tue Jul 28 2020 19:25:26 GMT+0200 (Mitteleuropäische Sommerzeit),1595957126879,13.094216666666666,96,main;
1972,543,21,,correct,motorcycle,label,Graduated High School/ Abitur,1595957912532,no match,162,divers,dog,label_incorrect,n,German,materials/images/dog_poodle_1.jpg, ,materials/labels/motorcycle_male.wav,Tue Jul 28 2020 19:25:26 GMT+0200 (Mitteleuropäische Sommerzeit),1595957126879,13.094216666666666,97,main;
1972,562,21,,correct,dog,sound,Graduated High School/ Abitur,1595957912532,no match,162,divers,guitar,sound_incorrect,n,German,materials/images/guitar_acoustic_2.jpg, ,materials/sounds/dog_poodle.wav,Tue Jul 28 2020 19:25:26 GMT+0200 (Mitteleuropäische Sommerzeit),1595957126879,13.094216666666666,98,main;
1972,464,21,,correct,dog,sound,Graduated High School/ Abitur,1595957912532,match,162,divers,dog,congruent,y,German,materials/images/dog_poodle_2.jpg, ,materials/sounds/dog_poodle.wav,Tue Jul 28 2020 19:25:26 GMT+0200 (Mitteleuropäische Sommerzeit),1595957126879,13.094216666666666,99,main;
1972,352,21,,correct,dog,sound,Graduated High School/ Abitur,1595957912532,match,162,divers,dog,congruent,y,German,materials/images/dog_poodle_1.jpg, ,materials/sounds/dog_poodle.wav,Tue Jul 28 2020 19:25:26 GMT+0200 (Mitteleuropäische Sommerzeit),1595957126879,13.094216666666666,100,main;
1972,578,21,,correct,bird,sound,Graduated High School/ Abitur,1595957912532,no match,162,divers,dog,sound_incorrect,n,German,materials/images/dog_poodle_1.jpg, ,materials/sounds/bird_owl.wav,Tue Jul 28 2020 19:25:26 GMT+0200 (Mitteleuropäische Sommerzeit),1595957126879,13.094216666666666,101,main;
1972,462,21,,correct,bird,sound,Graduated High School/ Abitur,1595957912532,match,162,divers,bird,incongruent,y,German,materials/images/bird_sparrow_2.jpg, ,materials/sounds/bird_owl.wav,Tue Jul 28 2020 19:25:26 GMT+0200 (Mitteleuropäische Sommerzeit),1595957126879,13.094216666666666,102,main;
1972,445,21,,correct,motorcycle,label,Graduated High School/ Abitur,1595957912532,no match,162,divers,phone,label_incorrect,n,German,materials/images/phone_cell_2.jpg, ,materials/labels/motorcycle_female.wav,Tue Jul 28 2020 19:25:26 GMT+0200 (Mitteleuropäische Sommerzeit),1595957126879,13.094216666666666,103,main;
1972,655,21,,correct,motorcycle,label,Graduated High School/ Abitur,1595957912532,match,162,divers,motorcycle,label_correct,y,German,materials/images/motorcycle_small_1.jpg, ,materials/labels/motorcycle_female.wav,Tue Jul 28 2020 19:25:26 GMT+0200 (Mitteleuropäische Sommerzeit),1595957126879,13.094216666666666,104,main;
1972,532,21,,correct,motorcycle,label,Graduated High School/ Abitur,1595957912532,no match,162,divers,drum,label_incorrect,n,German,materials/images/drum_kit_2.jpg, ,materials/labels/motorcycle_female.wav,Tue Jul 28 2020 19:25:26 GMT+0200 (Mitteleuropäische Sommerzeit),1595957126879,13.094216666666666,105,main;
1972,432,21,,correct,guitar,sound,Graduated High School/ Abitur,1595957912532,match,162,divers,guitar,congruent,y,German,materials/images/guitar_electric_1.jpg, ,materials/sounds/guitar_electric.wav,Tue Jul 28 2020 19:25:26 GMT+0200 (Mitteleuropäische Sommerzeit),1595957126879,13.094216666666666,106,main;
1972,609,21,,correct,phone,sound,Graduated High School/ Abitur,1595957912532,no match,162,divers,drum,sound_incorrect,n,German,materials/images/drum_kit_1.jpg, ,materials/sounds/phone_cell.wav,Tue Jul 28 2020 19:25:26 GMT+0200 (Mitteleuropäische Sommerzeit),1595957126879,13.094216666666666,107,main;
1972,529,21,,correct,motorcycle,label,Graduated High School/ Abitur,1595957912532,no match,162,divers,bird,label_incorrect,n,German,materials/images/bird_sparrow_2.jpg, ,materials/labels/motorcycle_male.wav,Tue Jul 28 2020 19:25:26 GMT+0200 (Mitteleuropäische Sommerzeit),1595957126879,13.094216666666666,108,main;
1972,702,21,,correct,phone,sound,Graduated High School/ Abitur,1595957912532,match,162,divers,phone,congruent,y,German,materials/images/phone_cell_2.jpg, ,materials/sounds/phone_cell.wav,Tue Jul 28 2020 19:25:26 GMT+0200 (Mitteleuropäische Sommerzeit),1595957126879,13.094216666666666,109,main;
1972,722,21,,correct,drum,label,Graduated High School/ Abitur,1595957912532,match,162,divers,drum,label_correct,y,German,materials/images/drum_bongo_1.jpg, ,materials/labels/drum_male.wav,Tue Jul 28 2020 19:25:26 GMT+0200 (Mitteleuropäische Sommerzeit),1595957126879,13.094216666666666,110,main;
1972,671,21,,correct,motorcycle,sound,Graduated High School/ Abitur,1595957912532,no match,162,divers,dog,sound_incorrect,n,German,materials/images/dog_poodle_1.jpg, ,materials/sounds/motorcycle_big.wav,Tue Jul 28 2020 19:25:26 GMT+0200 (Mitteleuropäische Sommerzeit),1595957126879,13.094216666666666,111,main;
1972,546,21,,correct,motorcycle,sound,Graduated High School/ Abitur,1595957912532,no match,162,divers,bird,sound_incorrect,n,German,materials/images/bird_owl_2.jpg, ,materials/sounds/motorcycle_big.wav,Tue Jul 28 2020 19:25:26 GMT+0200 (Mitteleuropäische Sommerzeit),1595957126879,13.094216666666666,112,main;
1972,579,21,,correct,phone,sound,Graduated High School/ Abitur,1595957912532,no match,162,divers,drum,sound_incorrect,n,German,materials/images/drum_bongo_1.jpg, ,materials/sounds/phone_cell.wav,Tue Jul 28 2020 19:25:26 GMT+0200 (Mitteleuropäische Sommerzeit),1595957126879,13.094216666666666,113,main;
1972,480,21,,correct,phone,sound,Graduated High School/ Abitur,1595957912532,match,162,divers,phone,congruent,y,German,materials/images/phone_rotary_2.jpg, ,materials/sounds/phone_rotary.wav,Tue Jul 28 2020 19:25:26 GMT+0200 (Mitteleuropäische Sommerzeit),1595957126879,13.094216666666666,114,main;
1972,496,21,,correct,motorcycle,sound,Graduated High School/ Abitur,1595957912532,no match,162,divers,drum,sound_incorrect,n,German,materials/images/drum_bongo_1.jpg, ,materials/sounds/motorcycle_big.wav,Tue Jul 28 2020 19:25:26 GMT+0200 (Mitteleuropäische Sommerzeit),1595957126879,13.094216666666666,115,main;
